Packet number,Gyroscope X (deg/s),Gyroscope Y (deg/s),Gyroscope Z (deg/s),Accelerometer X (g),Accelerometer Y (g),Accelerometer Z (g),Magnetometer X (G),Magnetometer Y (G),Magnetometer Z (G)
1,-1.197101,-0.59855,-1.197101,0.490066972,0.178161774,0.780495107,-0.005295376,-0.014709376,0.027065253
2,0.59855,0.59855,0,0.480792762,0.176697452,0.77512579,-0.005295376,-0.014709376,0.027065253
3,0.598551,0,0.598551,0.491531295,0.179138022,0.771220897,-0.005295376,-0.014709376,0.027065253
4,0,0.598551,0,0.479816514,0.17181631,0.769756575,-0.005295376,-0.014709376,0.027065253
5,0,0,-1.197101,0.481769011,0.182554842,0.772197146,-0.005295376,-0.014709376,0.027065253
6,0,-0.598551,0.59855,0.486650153,0.181578593,0.775613965,-0.005295376,-0.014709376,0.027065253
7,0,0.598551,-0.59855,0.488114475,0.178161774,0.774637717,-0.005295376,-0.014709376,0.027065253
8,0,-0.598551,0,0.484697655,0.17181631,0.759506218,-0.005295376,-0.014709376,0.027065253
9,-1.197101,0.598551,0,0.474935372,0.18109052,0.778054536,-0.017651252,-0.004118625,0.02147569
10,1.197101,0,0.59855,0.48616208,0.181578593,0.772197146,-0.017651252,-0.004118625,0.02147569
11,0.59855,-0.598551,0,0.484209582,0.175721203,0.759506218,-0.017651252,-0.004118625,0.02147569
12,0.59855,0,-0.59855,0.480304689,0.177185525,0.770732824,-0.017651252,-0.004118625,0.02147569
13,0,1.197101,0.59855,0.480792762,0.178649949,0.771220897,-0.017651252,-0.003971532,0.021916971
14,0,0,-1.197101,0.486650153,0.182554842,0.770732824,-0.017651252,-0.003971532,0.021916971
15,0,0,0,0.478840367,0.183042915,0.767316004,-0.017651252,-0.003971532,0.021916971
16,0,0,0,0.477864118,0.182554842,0.78098318,-0.018092533,-0.003971532,0.021916971
17,-0.59855,1.197101,0,0.480792762,0.170840061,0.769756575,-0.018092533,-0.003971532,0.021916971
18,0,-0.598551,0,0.480792762,0.177185525,0.769268502,-0.018092533,-0.003971532,0.021916971
19,0.59855,-0.59855,0,0.482257085,0.184507238,0.770732824,-0.018092533,-0.003971532,0.021916971
20,0.598401,-1.197101,1.197101,0.487138328,0.178649949,0.793186035,-0.017504158,-0.003971532,0.021181502
21,0,-1.197101,0,0.478840367,0.184507238,0.771709072,-0.017504158,-0.003971532,0.021181502
22,-1.196951,-0.59855,0.598551,0.479816514,0.180602345,0.7844,-0.017504158,-0.003971532,0.021181502
23,-0.59855,-1.197101,0,0.480792762,0.18109052,0.774149643,-0.017504158,-0.003971532,0.021181502
24,-1.197101,0,0.59855,0.480304689,0.181578593,0.788304893,-0.017945439,-0.003824438,0.022064065
25,0,0,0.59855,0.471518654,0.178649949,0.764875433,-0.017945439,-0.003824438,0.022064065
26,0,0,0,0.485185831,0.176209378,0.774149643,-0.017945439,-0.003824438,0.022064065
27,0.59855,0,0,0.479816514,0.176697452,0.781471356,-0.017945439,-0.003824438,0.022064065
28,0,0,0.598551,0.481769011,0.174256881,0.769268502,-0.018239627,-0.00353025,0.021181502
29,1.197101,0.598551,-1.197101,0.484209582,0.184995413,0.771220897,-0.018239627,-0.00353025,0.021181502
30,0,0,-0.59855,0.48274526,0.185483486,0.781959429,-0.018239627,-0.00353025,0.021181502
31,0.59855,0,0.59855,0.48860265,0.183531091,0.771709072,-0.017504158,-0.003677344,0.02147569
32,-1.1971,0.59855,0,0.48860265,0.178649949,0.759018043,-0.017504158,-0.003677344,0.02147569
33,0.59855,-1.197101,0,0.484209582,0.179626096,0.777078287,-0.017504158,-0.003677344,0.02147569
34,0,0,-0.59855,0.483721509,0.172792559,0.776102039,-0.017504158,-0.003677344,0.02147569
35,0,0.598551,0.59855,0.491531295,0.182554842,0.781471356,-0.017651252,-0.004265719,0.021622783
36,-0.59855,0,0,0.48274526,0.1776737,0.780495107,-0.017651252,-0.004265719,0.021622783
37,0,0.59855,0,0.477864118,0.179626096,0.765851682,-0.017651252,-0.004265719,0.021622783
38,0.59855,-1.197101,0,0.485185831,0.180114271,0.763411111,-0.017651252,-0.004265719,0.021622783
39,0.59855,0,0,0.483721509,0.178649949,0.769756575,-0.018386721,-0.003971532,0.021769877
40,-0.59855,-0.59855,0,0.481769011,0.1776737,0.765851682,-0.018386721,-0.003971532,0.021769877
41,0.59855,0,0,0.489090724,0.182066667,0.774637717,-0.018386721,-0.003971532,0.021769877
42,-0.59855,0,0,0.485185831,0.183531091,0.763899185,-0.018386721,-0.003971532,0.021769877
43,-1.197101,0.59855,0,0.484209582,0.183042915,0.768292253,-0.017504158,-0.003824438,0.021328596
44,0.598551,0,0,0.48274526,0.1776737,0.771220897,-0.017504158,-0.003824438,0.021328596
45,0,-0.59855,-0.59855,0.481769011,0.1776737,0.764875433,-0.017504158,-0.003824438,0.021328596
46,0.59855,0,0,0.487626402,0.172304383,0.768780326,-0.017798346,-0.00353025,0.021916971
47,0,0.59855,0.59855,0.47688787,0.184507238,0.776102039,-0.017798346,-0.00353025,0.021916971
48,0,0,-0.59855,0.481280938,0.176209378,0.777078287,-0.017798346,-0.00353025,0.021916971
49,0.59855,-1.197101,-0.598551,0.481769011,0.180114271,0.767316004,-0.017798346,-0.00353025,0.021916971
50,0.598401,0.598551,0.598551,0.47932844,0.188900306,0.780007034,-0.017945439,-0.004412813,0.02147569
51,-0.598401,0,0.59855,0.473959225,0.180114271,0.768292253,-0.017945439,-0.004412813,0.02147569
52,-1.1971,0,-0.59855,0.489090724,0.183531091,0.780007034,-0.017945439,-0.004412813,0.02147569
53,0,0.59855,0,0.48274526,0.1776737,0.762434862,-0.017945439,-0.004412813,0.02147569
54,0,0.598551,0.59855,0.483721509,0.175721203,0.777078287,-0.017798346,-0.004265719,0.022064065
55,0,-0.598551,0,0.483721509,0.174744954,0.776590214,-0.017798346,-0.004265719,0.022064065
56,-1.197101,0.598551,0,0.480792762,0.172304383,0.767316004,-0.017798346,-0.004265719,0.022064065
57,0.59855,0,0,0.479816514,0.175721203,0.777078287,-0.017798346,-0.004265719,0.022064065
58,0.598551,-0.598551,0,0.48860265,0.181578593,0.777078287,-0.017504158,-0.004265719,0.022064065
59,0,-0.59855,0,0.475423547,0.175233129,0.780495107,-0.017504158,-0.004265719,0.022064065
60,0.59855,0.59855,0.59855,0.479816514,0.176697452,0.770732824,-0.017504158,-0.004265719,0.022064065
61,-0.59855,-0.59855,-0.59855,0.478840367,0.178161774,0.777078287,-0.017504158,-0.004265719,0.022064065
62,-0.598551,0,1.197101,0.477864118,0.176697452,0.777078287,-0.017945439,-0.003677344,0.021622783
63,-0.59855,-0.598551,-0.598551,0.488114475,0.180114271,0.779030785,-0.017945439,-0.003677344,0.021622783
64,0.59855,-0.59855,1.197101,0.480792762,0.176697452,0.77854261,-0.017945439,-0.003677344,0.021622783
65,0,-0.598551,-0.59855,0.480304689,0.169375739,0.773661468,-0.017798346,-0.004265719,0.021622783
66,1.197101,0,-0.598551,0.482257085,0.1776737,0.77854261,-0.017798346,-0.004265719,0.021622783
67,-0.59855,-0.59855,0.598551,0.481280938,0.187924057,0.767316004,-0.017798346,-0.004265719,0.021622783
68,0,0.59855,0,0.491043221,0.181578593,0.781959429,-0.017798346,-0.004265719,0.021622783
69,0.59855,1.197101,0,0.476399796,0.175233129,0.776590214,-0.017651252,-0.003677344,0.021328596
70,-1.197101,-0.59855,0.59855,0.475911621,0.178161774,0.777078287,-0.017651252,-0.003677344,0.021328596
71,-0.59855,0,0.598551,0.478840367,0.179138022,0.768780326,-0.017651252,-0.003677344,0.021328596
72,0,-0.598551,0,0.485185831,0.184019164,0.780495107,-0.017651252,-0.003677344,0.021328596
73,0.59855,0,0,0.484697655,0.18109052,0.774637717,-0.01720997,-0.004118625,0.021769877
74,0,-0.59855,0,0.484209582,0.179626096,0.791721713,-0.01720997,-0.004118625,0.021769877
75,1.197101,0,-0.598551,0.485185831,0.177185525,0.767316004,-0.01720997,-0.004118625,0.021769877
76,-0.59855,0,-0.59855,0.491531295,0.171328236,0.782935678,-0.01720997,-0.004118625,0.021769877
77,-0.598551,1.197101,0.59855,0.486650153,0.182554842,0.774149643,-0.017945439,-0.003971532,0.021622783
78,-0.59855,-0.598551,1.197101,0.488114475,0.183042915,0.78098318,-0.017945439,-0.003971532,0.021622783
79,0.59855,-0.59855,0.598551,0.480792762,0.178161774,0.769268502,-0.017945439,-0.003971532,0.021622783
80,0,-0.59855,0.59855,0.481769011,0.182554842,0.762434862,-0.017798346,-0.003677344,0.021181502
81,-0.59855,0,-1.197101,0.489090724,0.170840061,0.777078287,-0.017798346,-0.003677344,0.021181502
82,0.59855,0,-0.59855,0.478840367,0.186947808,0.764875433,-0.017798346,-0.003677344,0.021181502
83,0,0,0.59855,0.490555046,0.182066667,0.77512579,-0.017798346,-0.003677344,0.021181502
84,0,-0.598551,0,0.485673904,0.170351988,0.771220897,-0.017798346,-0.004265719,0.022358252
85,0,1.197101,-0.59855,0.485673904,0.171328236,0.772197146,-0.017798346,-0.004265719,0.022358252
86,-0.59855,0,-0.598551,0.490066972,0.175233129,0.774149643,-0.017798346,-0.004265719,0.022358252
87,0.59855,0,1.197101,0.48860265,0.174744954,0.766339755,-0.017798346,-0.004265719,0.022358252
88,-0.59855,-0.59855,0,0.48616208,0.173768807,0.766827931,-0.018092533,-0.003971532,0.021916971
89,1.197101,-0.598551,0,0.483721509,0.18109052,0.767316004,-0.018092533,-0.003971532,0.021916971
90,-0.598551,0,0,0.486650153,0.172304383,0.788793068,-0.018092533,-0.003971532,0.021916971
91,0,0,0,0.487138328,0.182066667,0.777078287,-0.018092533,-0.003971532,0.021916971
92,0.598551,0,-0.59855,0.479816514,0.180114271,0.783423751,-0.017798346,-0.00353025,0.02147569
93,0,0,0.59855,0.478840367,0.176697452,0.78098318,-0.017798346,-0.00353025,0.02147569
94,-0.598551,0,0,0.479816514,0.186947808,0.778054536,-0.017798346,-0.00353025,0.02147569
95,-0.59855,-1.197101,0,0.488114475,0.179138022,0.774637717,-0.018533814,-0.004412813,0.022064065
96,0,0,0,0.490066972,0.175721203,0.754136901,-0.018533814,-0.004412813,0.022064065
97,1.197101,-0.59855,0.598551,0.479816514,0.177185525,0.779518858,-0.018533814,-0.004412813,0.022064065
98,-0.598551,-0.59855,1.1971,0.49201947,0.180114271,0.769268502,-0.018533814,-0.004412813,0.022064065
99,0.598551,-0.598551,-0.59855,0.478840367,0.184995413,0.766827931,-0.017798346,-0.004118625,0.021916971
100,0.59855,0,-1.197101,0.48860265,0.182066667,0.765851682,-0.017798346,-0.004118625,0.021916971
101,-1.197101,0,0.598551,0.491531295,0.173280632,0.7995316,-0.017798346,-0.004118625,0.021916971
102,1.197101,0,0,0.479816514,0.179626096,0.78098318,-0.017798346,-0.004118625,0.021916971
103,0,0.598551,0,0.499829256,0.16839949,0.780495107,-0.017504158,-0.004265719,0.022064065
104,0.59855,0,0,0.490555046,0.175721203,0.779518858,-0.017504158,-0.004265719,0.022064065
105,0.598401,0.59855,-1.197101,0.489090724,0.179138022,0.774637717,-0.017504158,-0.004265719,0.022064065
106,-1.196951,1.197101,0,0.490555046,0.172792559,0.769268502,-0.017504158,-0.004265719,0.022064065
107,0.59855,-0.598551,0.59855,0.478840367,0.180114271,0.760482365,-0.018092533,-0.004559907,0.02147569
108,-1.1971,0.598551,0,0.477864118,0.176209378,0.781959429,-0.018092533,-0.004559907,0.02147569
109,0.59855,0,-0.59855,0.486650153,0.175233129,0.776590214,-0.018092533,-0.004559907,0.02147569
110,0,0.59855,0,0.487626402,0.18109052,0.771709072,-0.018386721,-0.004118625,0.021769877
111,0,0.598551,0,0.493483792,0.188900306,0.7844,-0.018386721,-0.004118625,0.021769877
112,-0.59855,0,-0.598551,0.490555046,0.174744954,0.77854261,-0.018386721,-0.004118625,0.021769877
113,0.59855,1.1971,0,0.487626402,0.184507238,0.77512579,-0.018386721,-0.004118625,0.021769877
114,-1.197101,1.197101,-0.59855,0.483721509,0.175721203,0.779518858,-0.017651252,-0.004412813,0.021622783
115,0,1.197101,-0.598551,0.489578899,0.179626096,0.769268502,-0.017651252,-0.004412813,0.021622783
116,0.598551,0.598551,-0.59855,0.488114475,0.170840061,0.761946789,-0.017651252,-0.004412813,0.021622783
117,0,0,0,0.487626402,0.170351988,0.773173394,-0.017651252,-0.004412813,0.021622783
118,-0.598551,0,-0.59855,0.487138328,0.175721203,0.778054536,-0.018533814,-0.004854094,0.021622783
119,0.598551,-0.598551,0,0.479816514,0.174256881,0.761946789,-0.018533814,-0.004854094,0.021622783
120,0,0,0.59855,0.487626402,0.173768807,0.776590214,-0.018533814,-0.004854094,0.021622783
121,0,0,0,0.48616208,0.173280632,0.780495107,-0.018533814,-0.004854094,0.021622783
122,0.59855,0,0.59855,0.48860265,0.1776737,0.78098318,-0.018092533,-0.003383157,0.022211158
123,0,0,0,0.490066972,0.180602345,0.77854261,-0.018092533,-0.003383157,0.022211158
124,-1.197101,-0.59855,-0.59855,0.48860265,0.176209378,0.776102039,-0.018092533,-0.003383157,0.022211158
125,0,0.59855,-0.59855,0.48860265,0.177185525,0.774637717,-0.018680908,-0.003824438,0.021328596
126,0.598551,0,0.59855,0.483721509,0.184995413,0.780007034,-0.018680908,-0.003824438,0.021328596
127,-0.598551,0,1.795651,0.486650153,0.170840061,0.758529969,-0.018680908,-0.003824438,0.021328596
128,-0.59855,-0.59855,0.598551,0.492507543,0.180114271,0.762434862,-0.018680908,-0.003824438,0.021328596
129,0,0,-0.598551,0.485185831,0.178161774,0.760482365,-0.017945439,-0.003971532,0.021769877
130,0,-1.197101,-0.59855,0.48616208,0.175233129,0.770244648,-0.017945439,-0.003971532,0.021769877
131,1.795651,0,-0.598551,0.47932844,0.170351988,0.781959429,-0.017945439,-0.003971532,0.021769877
132,0,0,0,0.483721509,0.167423242,0.769756575,-0.017945439,-0.003971532,0.021769877
133,0,0.59855,-0.59855,0.48860265,0.170840061,0.779030785,-0.017798346,-0.003971532,0.021328596
134,0.59855,0,-0.59855,0.481769011,0.178649949,0.78098318,-0.017798346,-0.003971532,0.021328596
135,-0.59855,0,1.1971,0.490555046,0.177185525,0.762434862,-0.017798346,-0.003971532,0.021328596
136,1.196951,0,0,0.480304689,0.174256881,0.774637717,-0.017798346,-0.003971532,0.021328596
137,0,0,0,0.486650153,0.176209378,0.775613965,-0.018533814,-0.003677344,0.022064065
138,0.598551,0,-0.59855,0.48860265,0.178161774,0.765363507,-0.018533814,-0.003677344,0.022064065
139,0,-0.59855,-0.59855,0.486650153,0.175721203,0.772197146,-0.018533814,-0.003677344,0.022064065
140,0,-0.598551,0,0.492507543,0.181578593,0.773173394,-0.018092533,-0.003971532,0.02147569
141,0.59855,0,0.59855,0.492995617,0.184019164,0.785376249,-0.018092533,-0.003971532,0.02147569
142,-1.197101,0.598551,-0.59855,0.489090724,0.179626096,0.762434862,-0.018092533,-0.003971532,0.02147569
143,0.598551,0,-0.598551,0.490555046,0.173280632,0.774637717,-0.018092533,-0.003971532,0.02147569
144,-0.598551,0.59855,0,0.489090724,0.176209378,0.77512579,-0.018239627,-0.003824438,0.02147569
145,-0.598401,1.197101,0.598551,0.48274526,0.176697452,0.769756575,-0.018239627,-0.003824438,0.02147569
146,-0.59855,0.598551,0,0.481769011,0.175721203,0.776102039,-0.018239627,-0.003824438,0.02147569
147,0.59855,0.59855,0,0.48616208,0.169375739,0.750232008,-0.018239627,-0.003824438,0.02147569
148,-1.1971,-1.197101,0,0.485673904,0.174744954,0.770244648,-0.017945439,-0.004265719,0.02147569
149,1.1971,-0.59855,0.59855,0.485185831,0.169863812,0.77512579,-0.017945439,-0.004265719,0.02147569
150,0,0,-0.59855,0.49201947,0.174256881,0.776590214,-0.017945439,-0.004265719,0.02147569
151,-0.59855,0,0.59855,0.480304689,0.169375739,0.777078287,-0.017945439,-0.004265719,0.02147569
152,0.59855,-0.598551,-0.59855,0.485185831,0.176697452,0.763411111,-0.018239627,-0.003824438,0.021769877
153,0.598401,1.197101,0,0.48860265,0.176697452,0.769756575,-0.018239627,-0.003824438,0.021769877
154,-1.196951,0.598551,0.59855,0.489090724,0.182554842,0.776102039,-0.018239627,-0.003824438,0.021769877
155,0,0,0.59855,0.488114475,0.175233129,0.762434862,-0.017651252,-0.003971532,0.02147569
156,0,0,-0.59855,0.480304689,0.178649949,0.780495107,-0.017651252,-0.003971532,0.02147569
157,-0.59855,0,0,0.491531295,0.175721203,0.763411111,-0.017651252,-0.003971532,0.02147569
158,0.59855,0,0,0.48860265,0.174256881,0.766827931,-0.017651252,-0.003971532,0.02147569
159,0,0,0,0.483721509,0.174256881,0.791233639,-0.017798346,-0.004118625,0.021328596
160,0.59855,0.59855,0,0.488114475,0.177185525,0.76438736,-0.017798346,-0.004118625,0.021328596
161,0.598401,-0.59855,0,0.494948114,0.176697452,0.763411111,-0.017798346,-0.004118625,0.021328596
162,-0.598401,0.59855,-0.59855,0.487138328,0.173768807,0.775613965,-0.017798346,-0.004118625,0.021328596
163,-0.59855,0,-1.197101,0.490066972,0.178649949,0.77854261,-0.017945439,-0.004265719,0.022358252
164,0,0,0.59855,0.495924363,0.17181631,0.768292253,-0.017945439,-0.004265719,0.022358252
165,0.59855,0,0,0.484209582,0.176209378,0.783423751,-0.017945439,-0.004265719,0.022358252
166,0,0,-0.59855,0.48860265,0.177185525,0.785864322,-0.017945439,-0.004265719,0.022358252
167,0,0,-0.598551,0.488114475,0.181578593,0.766827931,-0.017798346,-0.004265719,0.021769877
168,0.598401,0,0,0.487626402,0.185971662,0.773173394,-0.017798346,-0.004265719,0.021769877
169,0,0.59855,0,0.487138328,0.171328236,0.770244648,-0.017798346,-0.004265719,0.021769877
170,-0.598401,0.598551,0.598551,0.489578899,0.176209378,0.776590214,-0.018239627,-0.003971532,0.021916971
171,-0.59855,0.59855,0,0.492507543,0.180114271,0.774637717,-0.018239627,-0.003971532,0.021916971
172,-0.59855,0.598551,0.59855,0.491531295,0.1776737,0.773173394,-0.018239627,-0.003971532,0.021916971
173,0,0.59855,-0.59855,0.481769011,0.17181631,0.774149643,-0.018239627,-0.003971532,0.021916971
174,0.59855,-0.59855,1.197101,0.494460041,0.177185525,0.773661468,-0.017798346,-0.004118625,0.021916971
175,0,-0.598551,0,0.484209582,0.176697452,0.775613965,-0.017798346,-0.004118625,0.021916971
176,0,0.598551,-1.197101,0.485185831,0.18109052,0.768780326,-0.017798346,-0.004118625,0.021916971
177,0,-0.598551,-0.598551,0.48616208,0.17181631,0.778054536,-0.017798346,-0.004118625,0.021916971
178,0.59855,0,0.598551,0.489090724,0.176209378,0.765851682,-0.017504158,-0.004707001,0.021769877
179,-0.59855,0,0,0.491531295,0.182554842,0.765363507,-0.017504158,-0.004707001,0.021769877
180,0,0.598551,0.59855,0.489578899,0.173768807,0.772197146,-0.017504158,-0.004707001,0.021769877
181,0,0,-0.59855,0.488114475,0.179138022,0.768292253,-0.017504158,-0.004707001,0.021769877
182,0,0,-0.598551,0.487138328,0.174744954,0.769756575,-0.017651252,-0.003971532,0.021769877
183,0,1.1971,0.598551,0.488114475,0.177185525,0.770244648,-0.017651252,-0.003971532,0.021769877
184,0.59855,0.598551,-0.598551,0.484209582,0.181578593,0.768780326,-0.017651252,-0.003971532,0.021769877
185,-1.1971,-0.598551,0,0.485185831,0.177185525,0.789281142,-0.017798346,-0.004118625,0.02147569
186,-0.598551,-0.59855,0.598551,0.48274526,0.183042915,0.763411111,-0.017798346,-0.004118625,0.02147569
187,1.197101,-0.59855,0,0.494460041,0.172792559,0.774149643,-0.017798346,-0.004118625,0.02147569
188,0,-1.197101,0,0.486650153,0.179138022,0.773173394,-0.017798346,-0.004118625,0.02147569
189,0.59855,0.59855,0,0.486650153,0.175721203,0.779030785,-0.017798346,-0.003677344,0.021328596
190,-0.59855,-0.59855,0,0.489090724,0.176209378,0.769268502,-0.017798346,-0.003677344,0.021328596
191,0,-0.598551,0.59855,0.484697655,0.177185525,0.77512579,-0.017798346,-0.003677344,0.021328596
192,-0.59855,0.598551,0.598551,0.478352192,0.183531091,0.790745464,-0.017798346,-0.003677344,0.021328596
193,0,0,-0.598551,0.481280938,0.18109052,0.77512579,-0.017798346,-0.004265719,0.021916971
194,0,0.59855,0,0.480792762,0.178161774,0.768292253,-0.017798346,-0.004265719,0.021916971
195,0,-0.59855,1.197101,0.488114475,0.175233129,0.788793068,-0.017798346,-0.004265719,0.021916971
196,-1.197101,1.197101,-0.59855,0.486650153,0.170351988,0.770244648,-0.017798346,-0.004265719,0.021916971
197,0,1.1971,0,0.48860265,0.173768807,0.77854261,-0.017798346,-0.003677344,0.022064065
198,1.197101,-1.1971,-1.197101,0.484209582,0.169863812,0.768292253,-0.017798346,-0.003677344,0.022064065
199,0,0,0.59855,0.483721509,0.173768807,0.7844,-0.017798346,-0.003677344,0.022064065
200,-0.598551,0,0,0.48274526,0.171328236,0.768780326,-0.017651252,-0.003971532,0.021769877
201,0.598551,-0.598551,-0.59855,0.480792762,0.175233129,0.770732824,-0.017651252,-0.003971532,0.021769877
202,0,0,1.197101,0.481769011,0.176209378,0.768292253,-0.017651252,-0.003971532,0.021769877
203,-0.598551,-0.59855,0,0.489090724,0.176697452,0.765851682,-0.017651252,-0.003971532,0.021769877
204,0,0,0,0.485185831,0.175721203,0.763411111,-0.017945439,-0.003971532,0.02147569
205,0,1.197101,0,0.483721509,0.182554842,0.770244648,-0.017945439,-0.003971532,0.02147569
206,0,-0.598551,0,0.48860265,0.174256881,0.768292253,-0.017945439,-0.003971532,0.02147569
207,-0.59855,0.598551,-0.598551,0.491531295,0.164982671,0.773173394,-0.017945439,-0.003971532,0.02147569
208,1.197101,0,0,0.487626402,0.165958919,0.776102039,-0.017798346,-0.004118625,0.021916971
209,0,-0.598551,0.598551,0.490066972,0.178161774,0.775613965,-0.017798346,-0.004118625,0.021916971
210,0.59855,-0.59855,0.59855,0.475911621,0.179138022,0.773173394,-0.017798346,-0.004118625,0.021916971
211,0,-1.197101,-1.197101,0.485185831,0.171328236,0.774637717,-0.017798346,-0.004118625,0.021916971
212,0.59855,0,-0.59855,0.481280938,0.1776737,0.774637717,-0.017798346,-0.004118625,0.022064065
213,-0.59855,-0.59855,0.59855,0.485185831,0.172304383,0.770732824,-0.017798346,-0.004118625,0.022064065
214,0,0.59855,0,0.487138328,0.178161774,0.777078287,-0.017798346,-0.004118625,0.022064065
215,-1.197101,-0.59855,1.197101,0.480792762,0.176697452,0.770244648,-0.018386721,-0.003971532,0.021916971
216,0.598551,1.1971,0,0.485673904,0.174744954,0.763899185,-0.018386721,-0.003971532,0.021916971
217,-1.197101,0.598551,0,0.489090724,0.173768807,0.769268502,-0.018386721,-0.003971532,0.021916971
218,0,0,-0.59855,0.483721509,0.173280632,0.771220897,-0.018386721,-0.003971532,0.021916971
219,1.197101,-0.598551,0.59855,0.479816514,0.170351988,0.783423751,-0.018092533,-0.004265719,0.021769877
220,-0.598551,0,-0.59855,0.490555046,0.176697452,0.757065647,-0.018092533,-0.004265719,0.021769877
221,0,0.598551,0,0.480792762,0.170840061,0.774149643,-0.018092533,-0.004265719,0.021769877
222,0,-1.795651,0,0.478840367,0.171328236,0.770244648,-0.018092533,-0.004265719,0.021769877
223,0,0,0,0.487626402,0.178161774,0.79025739,-0.018239627,-0.003971532,0.022505346
224,1.197101,0,0,0.484697655,0.177185525,0.773173394,-0.018239627,-0.003971532,0.022505346
225,0.59855,0,0.59855,0.476399796,0.184019164,0.773173394,-0.018239627,-0.003971532,0.022505346
226,-0.59855,-0.598551,-0.59855,0.48860265,0.171328236,0.775613965,-0.018239627,-0.003971532,0.022505346
227,-0.59855,0.598551,1.1971,0.477864118,0.18109052,0.775613965,-0.017798346,-0.004118625,0.021622783
228,0.59855,0,-1.1971,0.477375943,0.175233129,0.782935678,-0.017798346,-0.004118625,0.021622783
229,0,0,0.59855,0.497388685,0.174256881,0.774637717,-0.017798346,-0.004118625,0.021622783
230,0.59855,-0.598551,0,0.489090724,0.168887666,0.769268502,-0.017651252,-0.004265719,0.02265244
231,0,0,-0.59855,0.480792762,0.16839949,0.781471356,-0.017651252,-0.004265719,0.02265244
232,-0.59855,-1.197101,0.59855,0.484697655,0.181578593,0.763899185,-0.017651252,-0.004265719,0.02265244
233,-0.59855,1.197101,0,0.485673904,0.184995413,0.780007034,-0.017651252,-0.004265719,0.02265244
234,0,0.598551,0,0.484697655,0.178161774,0.790745464,-0.017651252,-0.003824438,0.02147569
235,0,0,0,0.487138328,0.181578593,0.785376249,-0.017651252,-0.003824438,0.02147569
236,0,0.59855,0,0.485185831,0.180114271,0.766339755,-0.017651252,-0.003824438,0.02147569
237,-0.598551,0,0,0.491531295,0.178161774,0.776590214,-0.017651252,-0.003824438,0.02147569
238,-0.59855,0.59855,-0.59855,0.485185831,0.16839949,0.772197146,-0.017798346,-0.004118625,0.021181502
239,0,0,0.59855,0.473959225,0.165470846,0.778054536,-0.017798346,-0.004118625,0.021181502
240,0,0,0,0.494460041,0.176209378,0.768780326,-0.017798346,-0.004118625,0.021181502
241,1.197101,0,0,0.47932844,0.171328236,0.781959429,-0.017798346,-0.004118625,0.021181502
242,0.59855,0,-0.59855,0.484209582,0.178161774,0.773173394,-0.017651252,-0.004118625,0.022064065
243,-1.197101,-0.59855,0.59855,0.485185831,0.169863812,0.786840571,-0.017651252,-0.004118625,0.022064065
244,0,-0.59855,-0.59855,0.478840367,0.180602345,0.784888175,-0.017651252,-0.004118625,0.022064065
245,0,-0.598551,-0.598551,0.49201947,0.170351988,0.78098318,-0.018386721,-0.003971532,0.021916971
246,1.197101,0,0.598551,0.489090724,0.170351988,0.773661468,-0.018386721,-0.003971532,0.021916971
247,0,-0.59855,-0.598551,0.485673904,0.173768807,0.761458614,-0.018386721,-0.003971532,0.021916971
248,0.59855,0.59855,-0.59855,0.490555046,0.174744954,0.753648828,-0.018386721,-0.003971532,0.021916971
249,0.598401,1.197101,0,0.485673904,0.174256881,0.776590214,-0.017651252,-0.003824438,0.02147569
250,0,-0.59855,0,0.485185831,0.176697452,0.769756575,-0.017651252,-0.003824438,0.02147569
251,-0.598401,0,0,0.48274526,0.173280632,0.773173394,-0.017651252,-0.003824438,0.02147569
252,-1.1971,-1.197101,0.59855,0.477375943,0.166935168,0.777078287,-0.017651252,-0.003824438,0.02147569
253,0,-0.598551,0.598551,0.487626402,0.177185525,0.776102039,-0.017798346,-0.004265719,0.021916971
254,0,0,-0.598551,0.487626402,0.169375739,0.772197146,-0.017798346,-0.004265719,0.021916971
255,0.59855,-0.59855,1.197101,0.479816514,0.184507238,0.771220897,-0.017798346,-0.004265719,0.021916971
256,0.59855,-0.598551,0.59855,0.482257085,0.170840061,0.770244648,-0.017798346,-0.004265719,0.021916971
257,-0.59855,-0.59855,0,0.485673904,0.174744954,0.770244648,-0.017504158,-0.003824438,0.021916971
258,-0.59855,1.197101,-0.59855,0.48860265,0.17181631,0.763411111,-0.017504158,-0.003824438,0.021916971
259,0.59855,-0.598551,-0.59855,0.484697655,0.175233129,0.773661468,-0.017504158,-0.003824438,0.021916971
260,-0.59855,0.598551,0.59855,0.490066972,0.176209378,0.774637717,-0.017504158,-0.003824438,0.021916971
261,-0.598551,0.59855,0,0.48860265,0.178649949,0.759994292,-0.017504158,-0.004118625,0.02147569
262,0.598551,-0.59855,0.59855,0.486650153,0.178649949,0.785864322,-0.017504158,-0.004118625,0.02147569
263,-0.598551,-0.598551,0,0.482257085,0.170351988,0.771220897,-0.017504158,-0.004118625,0.02147569
264,0,0,0,0.480304689,0.167423242,0.769268502,-0.017945439,-0.004265719,0.021181502
265,0.598551,0,-0.59855,0.485673904,0.170351988,0.768780326,-0.017945439,-0.004265719,0.021181502
266,0.59855,-0.59855,0,0.480792762,0.179138022,0.768292253,-0.017945439,-0.004265719,0.021181502
267,0,0.59855,1.197101,0.482257085,0.1776737,0.7844,-0.017945439,-0.004265719,0.021181502
268,-1.197101,0,0,0.47932844,0.1776737,0.776102039,-0.017651252,-0.003824438,0.021622783
269,0,0,0,0.473959225,0.174744954,0.7844,-0.017651252,-0.003824438,0.021622783
270,0.598551,-0.59855,0,0.48274526,0.175721203,0.779518858,-0.017651252,-0.003824438,0.021622783
271,-0.598551,0.59855,-0.598551,0.485185831,0.171328236,0.776102039,-0.017651252,-0.003824438,0.021622783
272,1.197101,0,0,0.491043221,0.172792559,0.770732824,-0.018239627,-0.003383157,0.021622783
273,0,0.598551,0.598551,0.489090724,0.180602345,0.773173394,-0.018239627,-0.003383157,0.021622783
274,-1.795651,-0.598551,0,0.487626402,0.165958919,0.771709072,-0.018239627,-0.003383157,0.021622783
275,-1.197101,0.598551,0,0.487138328,0.178161774,0.773661468,-0.018239627,-0.003383157,0.021622783
276,0.59855,0,1.197101,0.481769011,0.179626096,0.776102039,-0.017504158,-0.003824438,0.021769877
277,0.598551,-0.598551,0.59855,0.48274526,0.170840061,0.759506218,-0.017504158,-0.003824438,0.021769877
278,0,-0.59855,0.598551,0.483721509,0.1776737,0.781959429,-0.017504158,-0.003824438,0.021769877
279,0.59855,-0.59855,-0.598551,0.490555046,0.169863812,0.78098318,-0.017798346,-0.003971532,0.02147569
280,-0.59855,0,-1.197101,0.487138328,0.171328236,0.768780326,-0.017798346,-0.003971532,0.02147569
281,0.59855,1.1971,0,0.483721509,0.173280632,0.770244648,-0.017798346,-0.003971532,0.02147569
282,0,0,-0.59855,0.485673904,0.172792559,0.7844,-0.017798346,-0.003971532,0.02147569
283,0,0,0,0.48274526,0.175721203,0.780495107,-0.017798346,-0.003971532,0.021916971
284,-0.59855,0.598551,0,0.48616208,0.172304383,0.769756575,-0.017798346,-0.003971532,0.021916971
285,1.795651,0,-0.598551,0.492507543,0.173280632,0.761946789,-0.017798346,-0.003971532,0.021916971
286,1.196951,-0.598551,0,0.489578899,0.160589704,0.77512579,-0.017798346,-0.003971532,0.021916971
287,-1.196951,0.598551,0,0.485185831,0.17181631,0.771709072,-0.018386721,-0.003971532,0.021916971
288,-0.59855,0,0,0.483721509,0.175721203,0.765851682,-0.018386721,-0.003971532,0.021916971
289,-0.598551,0.59855,0,0.489578899,0.173768807,0.77512579,-0.018386721,-0.003971532,0.021916971
290,1.197101,0,0.598551,0.48860265,0.166447095,0.762434862,-0.018386721,-0.003971532,0.021916971
291,0,-0.59855,0.59855,0.482257085,0.180602345,0.781471356,-0.018239627,-0.004559907,0.021916971
292,-1.197101,-1.197101,-1.197101,0.48274526,0.17181631,0.773661468,-0.018239627,-0.004559907,0.021916971
293,0,0.59855,0.598551,0.483721509,0.172792559,0.764875433,-0.018239627,-0.004559907,0.021916971
294,0,0.598551,0.59855,0.484697655,0.168887666,0.780495107,-0.018092533,-0.004118625,0.021916971
295,0,0.59855,-0.59855,0.491043221,0.173280632,0.771220897,-0.018092533,-0.004118625,0.021916971
296,0,0,-0.598551,0.485673904,0.161565851,0.766339755,-0.018092533,-0.004118625,0.021916971
297,0,1.197101,-0.59855,0.485185831,0.16839949,0.777078287,-0.018092533,-0.004118625,0.021916971
298,0,0.598551,0.59855,0.499829256,0.169375739,0.77854261,-0.017945439,-0.003971532,0.022211158
299,-0.59855,0.59855,-1.1971,0.493971865,0.172304383,0.774637717,-0.017945439,-0.003971532,0.022211158
300,0.59855,-1.197101,0.59855,0.492507543,0.176209378,0.774149643,-0.017945439,-0.003971532,0.022211158
301,-0.59855,0.598551,0.59855,0.486650153,0.174256881,0.772197146,-0.017945439,-0.003971532,0.022211158
302,0,0.59855,0,0.482257085,0.172792559,0.779030785,-0.018092533,-0.003824438,0.021769877
303,0.59855,-1.197101,0,0.484697655,0.167423242,0.775613965,-0.018092533,-0.003824438,0.021769877
304,-0.59855,0,-0.59855,0.48860265,0.181578593,0.76438736,-0.018092533,-0.003824438,0.021769877
305,0.59855,0,0.59855,0.486650153,0.16839949,0.765363507,-0.018092533,-0.003824438,0.021769877
306,0.598551,0.598551,-1.1971,0.494948114,0.179138022,0.783423751,-0.018239627,-0.003824438,0.021622783
307,0,0.59855,0,0.494948114,0.179138022,0.759506218,-0.018239627,-0.003824438,0.021622783
308,0,1.197101,0.59855,0.487626402,0.173280632,0.774149643,-0.018239627,-0.003824438,0.021622783
309,0.59855,-0.598551,0,0.48860265,0.175233129,0.773173394,-0.017798346,-0.004118625,0.020887315
310,-1.197101,0.598551,0,0.480304689,0.174256881,0.769756575,-0.017798346,-0.004118625,0.020887315
311,0,-0.598551,0,0.499829256,0.175721203,0.763899185,-0.017798346,-0.004118625,0.020887315
312,0.598551,0,-0.59855,0.492507543,0.176209378,0.781959429,-0.017798346,-0.004118625,0.020887315
313,-1.197101,0.598551,-0.598551,0.497876758,0.167911417,0.779518858,-0.017945439,-0.004118625,0.021769877
314,0,0,0,0.487626402,0.16839949,0.761946789,-0.017945439,-0.004118625,0.021769877
315,0.59855,1.197101,-0.59855,0.491531295,0.176697452,0.780495107,-0.017945439,-0.004118625,0.021769877
316,0,0.59855,0,0.491531295,0.174256881,0.761946789,-0.017945439,-0.004118625,0.021769877
317,-0.59855,0,0,0.486650153,0.175233129,0.764875433,-0.017945439,-0.00353025,0.021622783
318,0.59855,0,0.59855,0.485673904,0.168887666,0.766339755,-0.017945439,-0.00353025,0.021622783
319,0,-0.59855,0,0.491043221,0.175721203,0.771709072,-0.017945439,-0.00353025,0.021622783
320,-0.59855,-0.598551,0.598551,0.49201947,0.1776737,0.75511315,-0.017945439,-0.00353025,0.021622783
321,0.59855,0.598551,0,0.48616208,0.168887666,0.776102039,-0.018680908,-0.003824438,0.021916971
322,-1.795651,-0.598551,0,0.489090724,0.175721203,0.776590214,-0.018680908,-0.003824438,0.021916971
323,0.59855,0,0.59855,0.493483792,0.180114271,0.763899185,-0.018680908,-0.003824438,0.021916971
324,0.598551,0,-0.59855,0.490066972,0.171328236,0.758529969,-0.017357064,-0.003677344,0.022358252
325,0,0,0,0.48860265,0.178161774,0.773173394,-0.017357064,-0.003677344,0.022358252
326,0,0.598551,0,0.486650153,0.166447095,0.769268502,-0.017357064,-0.003677344,0.022358252
327,0,0,0,0.48860265,0.173280632,0.771220897,-0.017357064,-0.003677344,0.022358252
328,0,0,-0.598551,0.490066972,0.180602345,0.793186035,-0.017798346,-0.003971532,0.021769877
329,0.59855,0.59855,-0.59855,0.484697655,0.172304383,0.775613965,-0.017798346,-0.003971532,0.021769877
330,0.598551,0.59855,-0.598551,0.493483792,0.173768807,0.769268502,-0.017798346,-0.003971532,0.021769877
331,-0.598551,-1.1971,1.197101,0.487626402,0.172792559,0.772197146,-0.017798346,-0.003971532,0.021769877
332,-0.59855,0,0.598551,0.485185831,0.173768807,0.776102039,-0.018092533,-0.004265719,0.02147569
333,1.197101,-0.598551,0,0.487626402,0.178649949,0.77512579,-0.018092533,-0.004265719,0.02147569
334,-0.598551,0,0,0.484209582,0.166447095,0.771220897,-0.018092533,-0.004265719,0.02147569
335,1.197101,-0.59855,0,0.487626402,0.178161774,0.771709072,-0.018092533,-0.004265719,0.02147569
336,0,0,-0.598551,0.485673904,0.169863812,0.766827931,-0.017798346,-0.003971532,0.021769877
337,0.59855,0.59855,0,0.491531295,0.175233129,0.777078287,-0.017798346,-0.003971532,0.021769877
338,-1.1971,-0.59855,0,0.492507543,0.177185525,0.773173394,-0.017798346,-0.003971532,0.021769877
339,0,0.59855,0,0.489578899,0.18109052,0.759994292,-0.017504158,-0.003824438,0.022064065
340,-0.598551,0,0,0.480304689,0.176209378,0.770244648,-0.017504158,-0.003824438,0.022064065
341,0,0,0.598551,0.481280938,0.177185525,0.777078287,-0.017504158,-0.003824438,0.022064065
342,1.795651,0.598551,0,0.487138328,0.171328236,0.778054536,-0.017504158,-0.003824438,0.022064065
343,0,-1.197101,-0.598551,0.488114475,0.174256881,0.774149643,-0.018680908,-0.00353025,0.022064065
344,0,-0.598551,-0.59855,0.489578899,0.164982671,0.759018043,-0.018680908,-0.00353025,0.022064065
345,-0.59855,0,0.59855,0.488114475,0.175233129,0.776102039,-0.018680908,-0.00353025,0.022064065
346,0,0,0,0.489090724,0.174744954,0.762434862,-0.018680908,-0.00353025,0.022064065
347,0.59855,0,0,0.480792762,0.170351988,0.766339755,-0.018092533,-0.003971532,0.022064065
348,0.598401,-0.59855,0,0.48274526,0.175233129,0.762434862,-0.018092533,-0.003971532,0.022064065
349,0,0.59855,0,0.48616208,0.165470846,0.783423751,-0.018092533,-0.003971532,0.022064065
350,0,-1.795651,0.598551,0.472982977,0.174744954,0.794162283,-0.018092533,-0.003971532,0.022064065
351,-0.598401,1.197101,0,0.482257085,0.174256881,0.774637717,-0.017798346,-0.003824438,0.022064065
352,-0.59855,0,0,0.48860265,0.18109052,0.779518858,-0.017798346,-0.003824438,0.022064065
353,0,0.59855,0,0.485673904,0.164494597,0.769756575,-0.017798346,-0.003824438,0.022064065
354,-0.59855,-1.1971,0,0.491531295,0.168887666,0.77512579,-0.017945439,-0.004412813,0.021916971
355,0,0.59855,0,0.487626402,0.172792559,0.768292253,-0.017945439,-0.004412813,0.021916971
356,-0.598551,-0.59855,0,0.48274526,0.175721203,0.76438736,-0.017945439,-0.004412813,0.021916971
357,1.197101,0.59855,0,0.49201947,0.17181631,0.77512579,-0.017945439,-0.004412813,0.021916971
358,0.59855,-0.59855,0.59855,0.495436188,0.179138022,0.775613965,-0.016915783,-0.004118625,0.021769877
359,0.598401,-0.598551,-0.59855,0.485673904,0.167911417,0.772197146,-0.016915783,-0.004118625,0.021769877
360,-0.598401,0.598551,-0.598551,0.487626402,0.178161774,0.780007034,-0.016915783,-0.004118625,0.021769877
361,0,0,0.598551,0.487138328,0.177185525,0.761946789,-0.016915783,-0.004118625,0.021769877
362,0,-0.598551,0,0.479816514,0.181578593,0.774149643,-0.017945439,-0.004118625,0.021916971
363,0,1.197101,0,0.491043221,0.1776737,0.775613965,-0.017945439,-0.004118625,0.021916971
364,-0.59855,-0.59855,0.59855,0.487626402,0.169375739,0.772197146,-0.017945439,-0.004118625,0.021916971
365,0.59855,0.59855,0,0.489578899,0.170840061,0.776102039,-0.017945439,-0.004118625,0.021916971
366,-0.59855,0,0,0.481769011,0.172304383,0.771220897,-0.017798346,-0.004412813,0.021916971
367,-1.197101,0.59855,0,0.487138328,0.169863812,0.765851682,-0.017798346,-0.004412813,0.021916971
368,0.598551,0,-0.59855,0.489578899,0.171328236,0.785864322,-0.017798346,-0.004412813,0.021916971
369,0.59855,0,0.59855,0.490555046,0.178649949,0.772197146,-0.017945439,-0.003824438,0.021769877
370,-0.59855,-0.59855,-0.59855,0.487626402,0.174256881,0.771220897,-0.017945439,-0.003824438,0.021769877
371,0,0,0.59855,0.48274526,0.180602345,0.798555352,-0.017945439,-0.003824438,0.021769877
372,0,-0.59855,0.59855,0.471518654,0.169375739,0.769268502,-0.017945439,-0.003824438,0.021769877
373,0,0,-0.59855,0.481280938,0.165470846,0.770732824,-0.017651252,-0.003971532,0.021916971
374,0.59855,0,0.59855,0.486650153,0.173768807,0.774637717,-0.017651252,-0.003971532,0.021916971
375,0.59855,-0.598551,-0.59855,0.493483792,0.168887666,0.766827931,-0.017651252,-0.003971532,0.021916971
376,-0.59855,0,0,0.48616208,0.179626096,0.765851682,-0.017651252,-0.003971532,0.021916971
377,0.59855,0,0,0.489090724,0.178649949,0.762434862,-0.01720997,-0.004118625,0.021181502
378,0,0,0.59855,0.484209582,0.17181631,0.768292253,-0.01720997,-0.004118625,0.021181502
379,-0.59855,0.598551,-0.59855,0.484209582,0.172304383,0.769268502,-0.01720997,-0.004118625,0.021181502
380,0,0.59855,0,0.49201947,0.175721203,0.79025739,-0.01720997,-0.004118625,0.021181502
381,0.59855,0.59855,-0.59855,0.488114475,0.176209378,0.771709072,-0.018533814,-0.003971532,0.021328596
382,0,-0.59855,0.59855,0.485185831,0.17181631,0.769756575,-0.018533814,-0.003971532,0.021328596
383,-0.59855,0,-0.59855,0.488114475,0.174744954,0.781959429,-0.018533814,-0.003971532,0.021328596
384,0,0,0,0.48616208,0.167423242,0.767316004,-0.018533814,-0.004118625,0.021769877
385,-0.59855,1.197101,-0.598551,0.474935372,0.178161774,0.774637717,-0.018533814,-0.004118625,0.021769877
386,0.59855,0.59855,-0.59855,0.492995617,0.173280632,0.765363507,-0.018533814,-0.004118625,0.021769877
387,-0.59855,-1.197101,0,0.491531295,0.164006524,0.780007034,-0.018533814,-0.004118625,0.021769877
388,0.59855,0.598551,0,0.493971865,0.179138022,0.770732824,-0.018092533,-0.004118625,0.021622783
389,0.59855,-0.598551,1.197101,0.48860265,0.174744954,0.780007034,-0.018092533,-0.004118625,0.021622783
390,-0.59855,-0.59855,-0.598551,0.48616208,0.176697452,0.784888175,-0.018092533,-0.004118625,0.021622783
391,0,0.59855,0.598551,0.487138328,0.173280632,0.776102039,-0.018092533,-0.004118625,0.021622783
392,0.59855,-0.59855,0,0.48860265,0.167423242,0.786840571,-0.017504158,-0.003971532,0.021622783
393,0,-0.59855,-0.598551,0.485673904,0.172792559,0.782935678,-0.017504158,-0.003971532,0.021622783
394,0.598401,0,-0.59855,0.480792762,0.166935168,0.771220897,-0.017504158,-0.003971532,0.021622783
395,0,0,1.197101,0.47932844,0.173280632,0.76097054,-0.017504158,-0.003971532,0.021622783
396,0,-0.598551,0,0.480792762,0.183042915,0.767316004,-0.018239627,-0.004118625,0.022211158
397,-1.196951,0.598551,0.59855,0.478352192,0.179138022,0.7844,-0.018239627,-0.004118625,0.022211158
398,1.196951,0,-0.59855,0.485185831,0.175233129,0.774637717,-0.018239627,-0.004118625,0.022211158
399,-0.598401,0.59855,0,0.487626402,0.167911417,0.769268502,-0.017651252,-0.004118625,0.021769877
400,-1.1971,-1.197101,0.59855,0.48274526,0.169863812,0.769268502,-0.017651252,-0.004118625,0.021769877
401,0.59855,0,0,0.49201947,0.176697452,0.785376249,-0.017651252,-0.004118625,0.021769877
402,0,-0.59855,0,0.491043221,0.172304383,0.772197146,-0.017651252,-0.004118625,0.021769877
403,-0.59855,-1.197101,1.197101,0.483721509,0.173280632,0.78098318,-0.017798346,-0.004559907,0.022064065
404,0.59855,0,0.59855,0.486650153,0.167911417,0.768780326,-0.017798346,-0.004559907,0.022064065
405,1.196951,0,-0.59855,0.489578899,0.16839949,0.77854261,-0.017798346,-0.004559907,0.022064065
406,-0.598401,0,-1.197101,0.48616208,0.167423242,0.770732824,-0.017798346,-0.004559907,0.022064065
407,0,0,0,0.48616208,0.175721203,0.778054536,-0.018092533,-0.003824438,0.021622783
408,1.196952,-0.598551,0.59855,0.490066972,0.171328236,0.776102039,-0.018092533,-0.003824438,0.021622783
409,0,-1.1971,0,0.483721509,0.180602345,0.767316004,-0.018092533,-0.003824438,0.021622783
410,-0.598551,-0.598551,0,0.490555046,0.175233129,0.774637717,-0.018092533,-0.003824438,0.021622783
411,-0.598401,-0.59855,0,0.487138328,0.172304383,0.779030785,-0.017504158,-0.003971532,0.021916971
412,1.196952,0.59855,0,0.480792762,0.174256881,0.772197146,-0.017504158,-0.003971532,0.021916971
413,-0.598551,0.598551,0,0.49201947,0.180114271,0.770732824,-0.017504158,-0.003971532,0.021916971
414,0,-0.598551,-0.59855,0.48860265,0.176697452,0.779518858,-0.017798346,-0.003971532,0.02147569
415,0.598551,0,0.59855,0.486650153,0.179138022,0.778054536,-0.017798346,-0.003971532,0.02147569
416,0.59855,-0.59855,-0.59855,0.486650153,0.166935168,0.770732824,-0.017798346,-0.003971532,0.02147569
417,0,0.59855,0,0.483721509,0.171328236,0.778054536,-0.017798346,-0.003971532,0.02147569
418,0,-0.59855,0.59855,0.481769011,0.174744954,0.771709072,-0.017945439,-0.004118625,0.021328596
419,0,0.59855,0,0.48860265,0.178649949,0.791233639,-0.017945439,-0.004118625,0.021328596
420,0.59855,0,-0.59855,0.497388685,0.173280632,0.774637717,-0.017945439,-0.004118625,0.021328596
421,-1.1971,0,0.59855,0.492995617,0.167423242,0.776590214,-0.017945439,-0.004118625,0.021328596
422,0,0.598551,0,0.491043221,0.180114271,0.774149643,-0.017945439,-0.004118625,0.021622783
423,-1.196952,0.59855,0,0.489090724,0.166935168,0.761946789,-0.017945439,-0.004118625,0.021622783
424,0.598401,-0.59855,0.598551,0.499829256,0.18109052,0.750720082,-0.017945439,-0.004118625,0.021622783
425,0.598551,-0.598551,0,0.484209582,0.166935168,0.768780326,-0.017945439,-0.004118625,0.021622783
426,0.59855,-0.59855,0,0.481280938,0.168887666,0.761458614,-0.018239627,-0.003971532,0.022211158
427,0.59855,0,0,0.477375943,0.173768807,0.769268502,-0.018239627,-0.003971532,0.022211158
428,-0.59855,0.59855,0,0.490555046,0.176697452,0.781959429,-0.018239627,-0.003971532,0.022211158
429,0.59855,-0.59855,0.59855,0.492507543,0.177185525,0.770732824,-0.018092533,-0.004265719,0.021769877
430,-1.1971,0.59855,-0.59855,0.485673904,0.179626096,0.765363507,-0.018092533,-0.004265719,0.021769877
431,0.59855,0,0,0.487626402,0.177185525,0.760482365,-0.018092533,-0.004265719,0.021769877
432,-0.59855,0,0,0.489578899,0.175721203,0.766827931,-0.018092533,-0.004265719,0.021769877
433,-0.598551,0,0,0.481769011,0.173280632,0.775613965,-0.017945439,-0.003971532,0.021622783
434,0,0,0,0.492507543,0.163518349,0.789281142,-0.017945439,-0.003971532,0.021622783
435,-0.598401,0,0,0.492995617,0.167911417,0.767316004,-0.017945439,-0.003971532,0.021622783
436,-0.59855,0.598551,0,0.491531295,0.175233129,0.77512579,-0.017945439,-0.003971532,0.021622783
437,0.59855,1.795651,0,0.494460041,0.169375739,0.777078287,-0.017651252,-0.003677344,0.022064065
438,-1.795651,0.59855,0,0.495436188,0.1776737,0.765363507,-0.017651252,-0.003677344,0.022064065
439,-0.59855,0.598551,0,0.493483792,0.178649949,0.756089399,-0.017651252,-0.003677344,0.022064065
440,1.197101,0.59855,0,0.49201947,0.177185525,0.764875433,-0.017651252,-0.003677344,0.022064065
441,-0.598551,0.598551,-1.197101,0.491531295,0.178649949,0.759994292,-0.018239627,-0.003677344,0.02147569
442,-0.59855,1.1971,0,0.48274526,0.175233129,0.763411111,-0.018239627,-0.003677344,0.02147569
443,-0.598551,0,1.197101,0.485185831,0.175233129,0.770244648,-0.018239627,-0.003677344,0.02147569
444,0,0,0.59855,0.490555046,0.17181631,0.774149643,-0.017945439,-0.003824438,0.02147569
445,0.598551,0.598551,-0.59855,0.477375943,0.177185525,0.765851682,-0.017945439,-0.003824438,0.02147569
446,0,-0.598551,-0.598551,0.489578899,0.169375739,0.770732824,-0.017945439,-0.003824438,0.02147569
447,0.59855,-1.1971,0,0.489090724,0.174256881,0.762434862,-0.017945439,-0.003824438,0.02147569
448,-0.59855,-1.197101,0.598551,0.486650153,0.173280632,0.782935678,-0.018092533,-0.003677344,0.021916971
449,0.59855,0,0,0.482257085,0.17181631,0.784888175,-0.018092533,-0.003677344,0.021916971
450,1.197101,0,0,0.495436188,0.174744954,0.776590214,-0.018092533,-0.003677344,0.021916971
451,0,0,0,0.488114475,0.167423242,0.775613965,-0.018092533,-0.003677344,0.021916971
452,-1.795651,0.59855,0,0.489090724,0.16839949,0.773173394,-0.018092533,-0.003677344,0.021328596
453,0.59855,-0.59855,0,0.490066972,0.172792559,0.761458614,-0.018092533,-0.003677344,0.021328596
454,0.598551,0.59855,-0.598551,0.482257085,0.175233129,0.769268502,-0.018092533,-0.003677344,0.021328596
455,-0.598551,-0.59855,0,0.490555046,0.169375739,0.772197146,-0.018092533,-0.003677344,0.021328596
456,0.598551,0.59855,-0.59855,0.491531295,0.1776737,0.758529969,-0.017651252,-0.004118625,0.021622783
457,0.59855,-1.197101,0.59855,0.491043221,0.164982671,0.773661468,-0.017651252,-0.004118625,0.021622783
458,1.196951,0,-0.59855,0.481280938,0.171328236,0.777078287,-0.017651252,-0.004118625,0.021622783
459,0,-1.197101,-0.59855,0.489578899,0.175233129,0.780007034,-0.018386721,-0.004412813,0.021769877
460,-0.598401,0.598551,0.59855,0.486650153,0.165470846,0.774149643,-0.018386721,-0.004412813,0.021769877
461,0.598401,-0.598551,0,0.491043221,0.174744954,0.778054536,-0.018386721,-0.004412813,0.021769877
462,0,0.598551,0,0.490066972,0.178161774,0.757553721,-0.018386721,-0.004412813,0.021769877
463,0,0,0.59855,0.489578899,0.174256881,0.763411111,-0.018680908,-0.004118625,0.022358252
464,0.598551,0,0,0.487138328,0.174744954,0.764875433,-0.018680908,-0.004118625,0.022358252
465,-0.598551,-0.598551,0,0.485185831,0.179626096,0.773661468,-0.018680908,-0.004118625,0.022358252
466,-0.598401,0,0.598551,0.481769011,0.183531091,0.768292253,-0.018680908,-0.004118625,0.022358252
467,0.598401,-0.59855,0,0.485185831,0.171328236,0.77854261,-0.017945439,-0.004118625,0.022211158
468,0,1.197101,0,0.491043221,0.17181631,0.771220897,-0.017945439,-0.004118625,0.022211158
469,-1.196951,-0.598551,-1.197101,0.485185831,0.169863812,0.779030785,-0.017945439,-0.004118625,0.022211158
470,1.196951,0.598551,0.59855,0.48860265,0.175233129,0.769268502,-0.017945439,-0.004118625,0.022211158
471,-1.196951,0.59855,-0.59855,0.499829256,0.169375739,0.783423751,-0.017651252,-0.004412813,0.022211158
472,-0.59855,1.197101,-0.59855,0.489578899,0.167423242,0.789281142,-0.017651252,-0.004412813,0.022211158
473,-0.598551,1.197101,0,0.49201947,0.17181631,0.764875433,-0.017651252,-0.004412813,0.022211158
474,0,0.59855,-0.598551,0.492995617,0.176209378,0.772197146,-0.018239627,-0.004118625,0.021769877
475,-0.59855,-0.59855,-0.59855,0.495924363,0.175233129,0.769268502,-0.018239627,-0.004118625,0.021769877
476,0.59855,-0.59855,0.59855,0.484697655,0.174744954,0.7844,-0.018239627,-0.004118625,0.021769877
477,0,1.1971,0.598551,0.486650153,0.1776737,0.779030785,-0.018239627,-0.004118625,0.021769877
478,0.598551,0.598551,-0.598551,0.489578899,0.170840061,0.762434862,-0.018239627,-0.003677344,0.021769877
479,-1.197101,0.59855,0.598551,0.489578899,0.168887666,0.76438736,-0.018239627,-0.003677344,0.021769877
480,0,0.598551,-0.598551,0.491531295,0.171328236,0.774149643,-0.018239627,-0.003677344,0.021769877
481,0.59855,0,0,0.48616208,0.165958919,0.770244648,-0.018239627,-0.003677344,0.021769877
482,0,0,-0.59855,0.494948114,0.173768807,0.781959429,-0.018092533,-0.003677344,0.021769877
483,-0.59855,1.1971,0.59855,0.487138328,0.17181631,0.776590214,-0.018092533,-0.003677344,0.021769877
484,-0.598551,0.598551,0,0.487138328,0.174744954,0.772197146,-0.018092533,-0.003677344,0.021769877
485,0.598551,-0.598551,-0.59855,0.485673904,0.17181631,0.767316004,-0.018092533,-0.003677344,0.021769877
486,1.197101,0,-0.598551,0.484209582,0.174256881,0.774637717,-0.017062877,-0.003971532,0.02147569
487,-0.598551,-1.1971,0,0.483721509,0.17181631,0.770244648,-0.017062877,-0.003971532,0.02147569
488,0.598551,-0.598551,0.598551,0.491043221,0.170840061,0.765851682,-0.017062877,-0.003971532,0.02147569
489,-0.598551,-1.197101,0,0.48860265,0.1776737,0.766339755,-0.017504158,-0.004265719,0.021622783
490,0.598551,1.197101,0,0.493971865,0.179626096,0.780495107,-0.017504158,-0.004265719,0.021622783
491,-1.197101,0.598551,0.59855,0.487626402,0.178649949,0.757553721,-0.017504158,-0.004265719,0.021622783
492,0,0.59855,0,0.495436188,0.165958919,0.757065647,-0.017504158,-0.004265719,0.021622783
493,-0.598551,0.59855,0,0.48274526,0.172304383,0.779518858,-0.018239627,-0.003677344,0.021769877
494,-0.59855,0.598551,0,0.485185831,0.172304383,0.780495107,-0.018239627,-0.003677344,0.021769877
495,0,0,0,0.49201947,0.173768807,0.781471356,-0.018239627,-0.003677344,0.021769877
496,0,-0.598551,-0.59855,0.486650153,0.176209378,0.763411111,-0.018239627,-0.003677344,0.021769877
497,0.59855,0.598551,0.59855,0.493971865,0.176209378,0.780007034,-0.017798346,-0.003971532,0.021769877
498,0,-0.598551,0.598551,0.486650153,0.18109052,0.776590214,-0.017798346,-0.003971532,0.021769877
499,0.598551,-0.59855,-0.598551,0.484697655,0.173280632,0.785864322,-0.017798346,-0.003971532,0.021769877
500,0,0,0.598551,0.487626402,0.173280632,0.779030785,-0.017798346,-0.003971532,0.021769877
501,0,0,0,0.499829256,0.1776737,0.772197146,-0.018092533,-0.004118625,0.021622783
502,-0.598551,0,0.59855,0.487138328,0.173768807,0.779518858,-0.018092533,-0.004118625,0.021622783
503,0,0,0,0.48860265,0.173768807,0.774637717,-0.018092533,-0.004118625,0.021622783
504,0.598551,0,0,0.492507543,0.178649949,0.780007034,-0.018092533,-0.004118625,0.021622783
505,-0.598551,0,0,0.479816514,0.177185525,0.770732824,-0.017945439,-0.004707001,0.021622783
506,0.598551,-0.59855,-0.59855,0.490555046,0.177185525,0.780495107,-0.017945439,-0.004707001,0.021622783
507,1.197101,-0.598551,0,0.48860265,0.171328236,0.769756575,-0.017945439,-0.004707001,0.021622783
508,0,-1.197101,0.59855,0.490066972,0.172304383,0.756577472,-0.017651252,-0.004412813,0.022505346
509,0,-0.59855,-0.59855,0.487626402,0.166447095,0.765851682,-0.017651252,-0.004412813,0.022505346
510,0,0,-0.598551,0.485185831,0.172792559,0.786840571,-0.017651252,-0.004412813,0.022505346
511,-0.598551,0.59855,0.598551,0.491531295,0.1776737,0.783423751,-0.017651252,-0.004412813,0.022505346
512,0,0.598551,0,0.488114475,0.174256881,0.776590214,-0.018239627,-0.003383157,0.022211158
513,0.598551,0,-0.598551,0.492995617,0.167423242,0.766339755,-0.018239627,-0.003383157,0.022211158
514,-0.598551,-1.197101,0.598551,0.487626402,0.170351988,0.771709072,-0.018239627,-0.003383157,0.022211158
515,-0.59855,0.59855,0,0.478352192,0.178649949,0.774637717,-0.018239627,-0.003383157,0.022211158
516,0,-0.59855,-0.598551,0.490066972,0.169863812,0.786840571,-0.017945439,-0.004412813,0.021769877
517,-1.197101,0,0.598551,0.48616208,0.173280632,0.778054536,-0.017945439,-0.004412813,0.021769877
518,0.59855,0,0,0.490066972,0.175233129,0.765851682,-0.017945439,-0.004412813,0.021769877
519,-0.59855,0.59855,0,0.489578899,0.175233129,0.778054536,-0.017945439,-0.004412813,0.021769877
520,0.59855,0.598551,0,0.490555046,0.170840061,0.770732824,-0.017798346,-0.004412813,0.02147569
521,0.598551,-0.598551,0,0.487138328,0.165958919,0.777078287,-0.017798346,-0.004412813,0.02147569
522,0,1.197101,0,0.490555046,0.174744954,0.770244648,-0.017798346,-0.004412813,0.02147569
523,0.59855,-0.59855,-0.598551,0.490066972,0.164006524,0.771709072,-0.017798346,-0.003824438,0.022358252
524,0,0,-0.59855,0.490066972,0.169863812,0.777078287,-0.017798346,-0.003824438,0.022358252
525,-0.59855,0,0.59855,0.489090724,0.172304383,0.782935678,-0.017798346,-0.003824438,0.022358252
526,-0.598551,0.59855,-0.59855,0.496412436,0.175233129,0.769756575,-0.017798346,-0.003824438,0.022358252
527,0,1.197101,0.59855,0.48616208,0.180602345,0.780495107,-0.017504158,-0.003383157,0.022064065
528,0.598551,-0.59855,0,0.495924363,0.173768807,0.780495107,-0.017504158,-0.003383157,0.022064065
529,0,0,-0.59855,0.484697655,0.169863812,0.769268502,-0.017504158,-0.003383157,0.022064065
530,0.59855,0,0,0.484697655,0.174744954,0.776590214,-0.017504158,-0.003383157,0.022064065
531,0,-0.598551,-0.598551,0.491531295,0.174744954,0.7844,-0.018239627,-0.003383157,0.022211158
532,0,-1.795651,1.197101,0.485185831,0.170840061,0.773173394,-0.018239627,-0.003383157,0.022211158
533,-0.59855,-0.59855,0.598551,0.48274526,0.172304383,0.781471356,-0.018239627,-0.003383157,0.022211158
534,0.59855,1.1971,0,0.487626402,0.173280632,0.772197146,-0.018239627,-0.003383157,0.022211158
535,-0.59855,0,0,0.48860265,0.166935168,0.771220897,-0.017798346,-0.003971532,0.021916971
536,-0.598551,0.598551,-0.598551,0.48860265,0.178161774,0.773661468,-0.017798346,-0.003971532,0.021916971
537,1.197101,0.59855,1.197101,0.485673904,0.166447095,0.76438736,-0.017798346,-0.003971532,0.021916971
538,0,-0.59855,0,0.488114475,0.170840061,0.781959429,-0.018386721,-0.003677344,0.022358252
539,-1.197101,0.59855,0,0.493483792,0.172792559,0.780007034,-0.018386721,-0.003677344,0.022358252
540,0,0,0.59855,0.491531295,0.175233129,0.781471356,-0.018386721,-0.003677344,0.022358252
541,0,0.598551,-1.1971,0.484697655,0.167423242,0.778054536,-0.018386721,-0.003677344,0.022358252
542,0.598551,0,0,0.490555046,0.174744954,0.76438736,-0.017945439,-0.003677344,0.021916971
543,-0.598551,0,0,0.483721509,0.169863812,0.785376249,-0.017945439,-0.003677344,0.021916971
544,0.598551,0,0,0.495436188,0.176209378,0.762434862,-0.017945439,-0.003677344,0.021916971
545,0,0.59855,0,0.490066972,0.172792559,0.776590214,-0.017945439,-0.003677344,0.021916971
546,-1.197101,0,-0.598551,0.49201947,0.169375739,0.776102039,-0.017945439,-0.003824438,0.021916971
547,0,0,0.598551,0.489578899,0.164006524,0.758529969,-0.017945439,-0.003824438,0.021916971
548,1.197101,0,-0.598551,0.485673904,0.166935168,0.771220897,-0.017945439,-0.003824438,0.021916971
549,0,0.59855,0,0.48616208,0.164982671,0.765851682,-0.017945439,-0.003824438,0.021916971
550,0,1.197101,-1.197101,0.491043221,0.167911417,0.776102039,-0.018239627,-0.004118625,0.021769877
551,-0.598551,0.598551,0,0.485673904,0.175721203,0.783423751,-0.018239627,-0.004118625,0.021769877
552,-0.59855,0,0.598551,0.48860265,0.170351988,0.766827931,-0.018239627,-0.004118625,0.021769877
553,0,-0.598551,0,0.492995617,0.16839949,0.778054536,-0.018092533,-0.004118625,0.021916971
554,0,1.197101,0,0.491043221,0.176697452,0.780495107,-0.018092533,-0.004118625,0.021916971
555,-0.598551,0,-0.598551,0.481280938,0.171328236,0.77854261,-0.018092533,-0.004118625,0.021916971
556,0,-0.59855,1.197101,0.478352192,0.164982671,0.76438736,-0.018092533,-0.004118625,0.021916971
557,0.598551,0.59855,0,0.490555046,0.161077778,0.77512579,-0.018092533,-0.003383157,0.021328596
558,-0.598551,-0.59855,0,0.48274526,0.182066667,0.773173394,-0.018092533,-0.003383157,0.021328596
559,0,0,0,0.48860265,0.170351988,0.779518858,-0.018092533,-0.003383157,0.021328596
560,0,-0.598551,0.598551,0.480792762,0.175233129,0.779030785,-0.018092533,-0.003383157,0.021328596
561,-0.59855,0.598551,-1.795652,0.49201947,0.169863812,0.784888175,-0.017798346,-0.003824438,0.021622783
562,0,0,-0.59855,0.482257085,0.175721203,0.776102039,-0.017798346,-0.003824438,0.021622783
563,-0.59855,0,1.197101,0.488114475,0.172792559,0.775613965,-0.017798346,-0.003824438,0.021622783
564,1.1971,-0.598551,-0.598551,0.485185831,0.162054027,0.780007034,-0.017798346,-0.003824438,0.021622783
565,0,0.598551,-0.59855,0.477864118,0.172792559,0.77854261,-0.018239627,-0.004707001,0.022064065
566,0,0.59855,0,0.489090724,0.16839949,0.769756575,-0.018239627,-0.004707001,0.022064065
567,0,0,-1.197101,0.48860265,0.166935168,0.782935678,-0.018239627,-0.004707001,0.022064065
568,-0.59855,1.197101,0.598551,0.489578899,0.178649949,0.773173394,-0.017798346,-0.003824438,0.022211158
569,-1.795651,0.59855,0.59855,0.481280938,0.173768807,0.781959429,-0.017798346,-0.003824438,0.022211158
570,-1.197101,0.598551,0,0.484209582,0.165470846,0.768292253,-0.017798346,-0.003824438,0.022211158
571,0,0.59855,0,0.480792762,0.170351988,0.767316004,-0.017798346,-0.003824438,0.022211158
572,-0.59855,0.598551,-0.59855,0.484209582,0.164494597,0.763411111,-0.018092533,-0.003383157,0.021916971
573,-1.795652,0,0.59855,0.483721509,0.17181631,0.7844,-0.018092533,-0.003383157,0.021916971
574,-1.197101,1.1971,0.59855,0.484697655,0.167423242,0.76438736,-0.018092533,-0.003383157,0.021916971
575,-1.795651,0,0.598551,0.474447299,0.165470846,0.776102039,-0.018092533,-0.003383157,0.021916971
576,-2.394201,-1.1971,1.795651,0.481280938,0.168887666,0.770732824,-0.018092533,-0.003677344,0.022211158
577,-2.394202,-2.394202,1.795651,0.479816514,0.180114271,0.747303262,-0.018092533,-0.003677344,0.022211158
578,-1.795651,-4.189853,1.795652,0.463220693,0.178649949,0.754136901,-0.018092533,-0.003677344,0.022211158
579,-4.189853,-6.584055,2.394201,0.463220693,0.183042915,0.78098318,-0.018092533,-0.003677344,0.022211158
580,-1.197101,-5.386953,2.992752,0.485673904,0.189388379,0.759994292,-0.017798346,-0.003677344,0.021769877
581,0,-8.379706,2.394202,0.478352192,0.174256881,0.7844,-0.017798346,-0.003677344,0.021769877
582,-2.992752,-8.978256,2.394202,0.474447299,0.182554842,0.752184506,-0.017798346,-0.003677344,0.021769877
583,-5.386954,-9.576807,3.591302,0.465173089,0.189876555,0.78781682,-0.017504158,-0.004265719,0.021622783
584,-3.591302,-14.96376,5.985504,0.491043221,0.190852803,0.763899185,-0.017504158,-0.004265719,0.021622783
585,-1.795652,-23.942017,9.576807,0.44076738,0.206472477,0.773661468,-0.017504158,-0.004265719,0.021622783
586,3.591303,-27.533319,7.781155,0.440279307,0.21037737,0.824425382,-0.017504158,-0.004265719,0.021622783
587,4.189853,-38.307227,10.773908,0.414409174,0.20451998,0.837116412,-0.01720997,-0.003971532,0.02265244
588,6.584054,-45.489831,16.160861,0.349001835,0.175233129,0.835163914,-0.01720997,-0.003971532,0.02265244
589,9.576807,-47.285483,8.379706,0.455898981,0.202567482,0.827354128,-0.01720997,-0.003971532,0.02265244
590,6.584055,-54.468088,3.591302,0.47005423,0.180602345,0.845414373,-0.01720997,-0.003971532,0.02265244
591,25.737518,-82.001407,19.752164,0.395372783,0.185971662,0.867379511,-0.017798346,-0.003824438,0.021916971
592,43.09563,-121.505734,38.307226,0.358764118,0.135207747,0.924488889,-0.017798346,-0.003824438,0.021916971
593,9.576806,-151.433255,29.927521,0.408551886,0.191829052,0.892273293,-0.017798346,-0.003824438,0.021916971
594,11.372458,-137.068045,49.679685,0.446136697,0.189876555,0.86493894,-0.017357064,-0.004412813,0.022211158
595,-28.73042,-143.053549,58.05939,0.398789602,0.235759327,0.879582365,-0.017357064,-0.004412813,0.022211158
596,-38.307226,-144.8492,61.650693,0.420266565,0.224044546,0.86493894,-0.017357064,-0.004412813,0.022211158
597,-40.102728,-175.375272,62.847793,0.353882977,0.173280632,0.906916718,-0.017357064,-0.004412813,0.022211158
598,-59.256492,-203.507141,59.855042,0.384634251,0.167423242,0.871284404,-0.018533814,-0.003236063,0.023093721
599,-69.431848,-183.754978,59.256491,0.460780122,0.233318756,0.937667992,-0.018533814,-0.003236063,0.023093721
600,-71.227499,-178.368023,67.636197,0.412456779,0.237711723,0.859569623,-0.018533814,-0.003236063,0.023093721
601,-54.468088,-178.368024,92.176764,0.501781753,0.244545362,0.852736086,-0.018975096,-0.00353025,0.024123377
602,-49.081134,-150.834705,107.739074,0.607214475,0.323131804,0.824425382,-0.018975096,-0.00353025,0.024123377
603,-65.840546,-127.491238,121.505735,0.629179613,0.373895719,0.735100408,-0.018975096,-0.00353025,0.024123377
604,-56.263739,-104.746323,111.330377,0.764875433,0.325084302,0.832723344,-0.018975096,-0.00353025,0.024123377
605,-21.547815,-50.876785,98.162268,0.753648828,0.378288787,0.764875433,-0.019269283,-0.002794782,0.025300128
606,23.942017,22.146365,73.621701,0.98550316,0.314833843,0.804900815,-0.019269283,-0.002794782,0.025300128
607,4.788403,79.607206,72.4246,1.129008869,0.329965443,0.824425382,-0.019269283,-0.002794782,0.025300128
608,-1.1971,113.126028,64.643445,1.138283078,0.326060449,0.719968909,-0.019269283,-0.002794782,0.025300128
609,16.160861,138.863696,50.278235,1.158295719,0.361692864,0.665788175,-0.020740221,-0.001323844,0.030595503
610,25.737668,169.988318,51.475336,1.265680938,0.328012946,0.669693068,-0.020740221,-0.001323844,0.030595503
611,41.299978,193.331784,50.278234,1.197833028,0.321667482,0.553033741,-0.020740221,-0.001323844,0.030595503
612,50.278235,183.754978,59.855042,1.161224363,0.322643731,0.500317329,-0.020446033,0.000294188,0.03280191
613,43.09563,184.353528,63.446344,1.09532895,0.305559633,0.476399796,-0.020446033,0.000294188,0.03280191
614,34.117374,181.959326,64.044894,1.088495311,0.319714985,0.428076453,-0.020446033,0.000294188,0.03280191
615,3.591302,156.820209,76.015903,0.990384302,0.333870336,0.374383792,-0.020446033,0.000294188,0.03280191
616,-22.744916,135.272393,81.402856,0.901059429,0.356811723,0.370478899,-0.020887315,0.001765125,0.034567035
617,-38.905777,132.279642,44.292731,0.814663099,0.386098573,0.425635882,-0.020887315,0.001765125,0.034567035
618,-62.847793,113.126028,-192.733233,0.542783282,0.850295515,0.606238226,-0.020887315,0.001765125,0.034567035
619,-30.526071,144.849201,-541.688126,0.633084506,1.345731702,0.4593158,-0.020887315,0.001765125,0.034567035
620,169.389767,317.83027,-694.318481,1.765510194,1.140235474,0.920095821,-0.019857658,0.002500594,0.036626347
621,144.25065,530.914218,-722.450351,1.304730071,1.242251376,1.178796534,-0.019857658,0.002500594,0.036626347
622,121.505585,414.795438,-645.237348,0.758041794,1.088007238,0.897154434,-0.019857658,0.002500594,0.036626347
623,70.030398,248.398422,-480.037433,0.410992457,1.026992966,0.695075025,-0.018092533,0.006472126,0.03750891
624,-23.343466,80.205756,-305.260711,0.085420082,0.880070438,0.543271458,-0.018092533,0.006472126,0.03750891
625,-52.073886,-45.489832,-183.156427,-0.150827421,0.68726524,0.534973496,-0.018092533,0.006472126,0.03750891
626,-38.905777,-108.936175,-89.782563,-0.288475637,0.543271458,0.564260347,-0.018092533,0.006472126,0.03750891
627,3.591303,-120.907184,-30.526071,-0.368526504,0.370478899,0.629179613,-0.017504158,0.004707001,0.036626347
628,67.636196,-84.395609,-16.160861,-0.312393272,0.183531091,0.718504587,-0.017504158,0.004707001,0.036626347
629,121.505735,-22.744915,-11.971008,-0.261629358,0.089324975,0.916190928,-0.017504158,0.004707001,0.036626347
630,136.469494,44.29273,-1.197101,-0.104456473,0.037584811,1.103626911,-0.017504158,0.004707001,0.036626347
631,117.914432,125.695588,2.992752,0.084443833,0.009762283,1.309611213,-0.019710564,0.003236063,0.036037972
632,74.818802,186.149179,3.591302,0.218675331,0.030751172,1.398448114,-0.019710564,0.003236063,0.036037972
633,20.350714,223.259304,15.562311,0.332894088,0.045394699,1.466784098,-0.019710564,0.003236063,0.036037972
634,-29.32897,235.828864,31.124622,0.425147706,0.056621305,1.465319776,-0.019710564,0.003236063,0.036037972
635,-70.030399,216.0767,53.869537,0.493971865,0.027334455,1.394055046,-0.020887315,-0.001029656,0.033684472
636,-83.797058,174.776721,70.628949,0.528139857,-0.00927421,1.317909174,-0.020887315,-0.001029656,0.033684472
637,-76.015903,126.892688,82.599957,0.575487054,-0.039537309,1.216869419,-0.020887315,-0.001029656,0.033684472
638,-62.847793,76.614453,99.359369,0.618929154,-0.084931906,1.142187971,-0.020887315,-0.0023535,0.030448409
639,-46.686933,31.124622,110.133277,0.686777064,-0.089324975,1.072875637,-0.020887315,-0.0023535,0.030448409
640,-27.533319,-1.795652,109.534726,0.740957798,-0.073217125,1.048958104,-0.020887315,-0.0023535,0.030448409
641,-10.175357,-24.540567,98.760818,0.833211417,-0.048323344,1.051886748,-0.020887315,-0.0023535,0.030448409
642,7.182605,-35.314474,77.213004,0.910333537,-0.011714781,1.041636391,-0.021034408,-0.004412813,0.028389097
643,20.949265,-44.891281,48.482583,0.996729867,0.021965138,1.070435066,-0.021034408,-0.004412813,0.028389097
644,26.934768,-54.468088,25.139118,1.073363812,0.079074516,1.064577778,-0.021034408,-0.004412813,0.028389097
645,20.949265,-52.073886,16.160861,1.180749032,0.116171254,1.1246158,-0.019857658,-0.006619219,0.024417565
646,8.978256,-21.547815,6.584054,1.344755454,0.150827421,1.217357594,-0.019857658,-0.006619219,0.024417565
647,-19.752164,35.314474,-4.788403,1.493630377,0.20110316,1.265680938,-0.019857658,-0.006619219,0.024417565
648,-57.460839,79.607206,-1.197101,1.542441794,0.200615087,1.200273598,-0.019857658,-0.006619219,0.024417565
649,-71.82605,86.78981,13.76666,1.476058308,0.161565851,1.050910499,-0.016180314,-0.008678532,0.020593127
650,-59.855042,62.249243,35.913025,1.379411621,0.054668807,0.880558614,-0.016180314,-0.008678532,0.020593127
651,-38.905627,2.394202,62.249243,1.236882161,0.014155352,0.701908665,-0.016180314,-0.008678532,0.020593127
652,-22.146365,-67.636197,90.381113,1.139259225,-0.027334455,0.550105097,-0.016180314,-0.008678532,0.020593127
653,-11.971009,-107.140524,102.352121,1.138771152,-0.005369215,0.546200102,-0.009855282,-0.010590751,0.020004752
654,-13.168109,-113.724579,98.760818,1.197833028,0.017572171,0.512520183,-0.009855282,-0.010590751,0.020004752
655,-16.759411,-86.789811,84.994159,1.269097757,0.051251988,0.514960856,-0.009855282,-0.010590751,0.020004752
656,-23.343467,-57.460839,70.628949,1.277395617,0.054668807,0.471030479,-0.006472126,-0.009561095,0.021769877
657,-1.1971,-58.059391,53.270987,1.19929735,-0.050763914,0.351930581,-0.006472126,-0.009561095,0.021769877
658,47.285482,-98.760818,47.285483,1.051886748,-0.176697452,0.165958919,-0.006472126,-0.009561095,0.021769877
659,116.118631,-169.988318,43.69418,0.933274924,-0.344120693,0.034167992,-0.006472126,-0.009561095,0.021769877
660,166.397016,-213.083948,46.686932,0.938156065,-0.446136697,-0.007321713,-0.006177938,-0.009855282,0.022946627
661,168.192666,-204.704242,57.46084,1.003563405,-0.49201947,0.009762283,-0.006177938,-0.009855282,0.022946627
662,119.111533,-162.805713,73.023151,1.071411315,-0.432957594,0.079562691,-0.006177938,-0.009855282,0.022946627
663,37.110126,-110.133276,94.570965,1.151950255,-0.329965443,0.184019164,-0.006177938,-0.009855282,0.022946627
664,-61.650693,-62.249243,120.308634,1.227607951,-0.21379419,0.23039001,-0.005295376,-0.009119813,0.023976284
665,-153.827457,-55.066638,158.61586,1.172939144,-0.110313863,0.177185525,-0.005295376,-0.009119813,0.023976284
666,-190.937582,-99.95792,196.923086,0.982574516,-0.059061876,0.09127737,-0.005295376,-0.009119813,0.023976284
667,-170.586719,-161.010061,213.682499,0.812710703,0.018548318,0.023917635,-0.005589563,-0.009561095,0.024123377
668,-108.936175,-193.331784,190.937582,0.748279511,0.076145872,0.074193374,-0.005589563,-0.009561095,0.024123377
669,-28.13187,-181.360776,134.075293,0.746327115,0.174256881,0.199638838,-0.005589563,-0.009561095,0.024123377
670,43.69418,-166.995566,51.475336,0.761458614,0.285058919,0.332406014,-0.005589563,-0.009561095,0.024123377
671,-37.110125,-456.693967,1.1971,0.276272783,0.998682263,3.05218002,-0.005001188,-0.009708189,0.024417565
672,18.555063,6.584055,-71.227499,0.345096942,0.635037003,0.303119062,-0.005001188,-0.009708189,0.024417565
673,-87.986912,119.710083,-136.469495,-1.135354332,1.022599898,1.099722018,-0.005001188,-0.009708189,0.024417565
674,-142.454998,-71.227499,-52.073886,-0.091765545,1.420901325,0.750232008,-0.005001188,-0.009708189,0.024417565
675,-20.350714,-191.536133,-76.015902,-0.742910296,1.191487564,0.30165474,-0.004707001,-0.00897272,0.025447221
676,-46.686933,-352.546195,-163.404264,-0.354371152,0.985015087,0.096646687,-0.004707001,-0.00897272,0.025447221
677,17.357962,-376.488211,-202.31004,-0.202079409,0.744862691,0.238687971,-0.004707001,-0.00897272,0.025447221
678,92.775315,-189.141931,-219.668002,0.389515392,0.650656677,0.774149643,-0.005001188,-0.008384345,0.025741409
679,26.934768,55.665189,-131.681092,0.891297044,0.308976453,1.196856779,-0.005001188,-0.008384345,0.025741409
680,-16.160861,147.243402,41.299979,0.935227421,-0.147410601,1.295944037,-0.005001188,-0.008384345,0.025741409
681,7.182605,144.25065,203.507141,0.668228746,-0.656025892,1.252013761,-0.005001188,-0.008384345,0.025741409
682,84.994159,105.943423,274.13609,0.021965138,-0.723385729,1.258359225,-0.005148282,-0.008384345,0.028830378
683,93.373865,23.343467,202.31004,0.393908359,-0.636989399,1.140723649,-0.005148282,-0.008384345,0.028830378
684,125.097036,37.110125,33.518824,0.529604281,0.236247401,0.843461876,-0.005148282,-0.008384345,0.028830378
685,39.504178,-25.737668,-71.82605,0.488114475,0.798555352,0.770244648,-0.005148282,-0.008384345,0.028830378
686,-5.386954,-72.4246,-120.308634,0.552545668,0.887880326,0.536925994,-0.006030844,-0.007648876,0.030007128
687,-2.992752,-44.292731,-93.373864,0.576951376,0.628691437,0.819544241,-0.006030844,-0.007648876,0.030007128
688,5.985505,71.82605,-2.394202,0.796602854,0.276760958,1.024552396,-0.006030844,-0.007648876,0.030007128
689,-2.992753,136.469495,46.686932,0.841509378,0.032215596,1.102650663,-0.006177938,-0.00779597,0.031036784
690,-41.898379,135.272394,40.701429,0.810758206,0.287987564,1.057256065,-0.006177938,-0.00779597,0.031036784
691,-65.241995,117.914431,2.394201,0.789281142,0.560843527,0.954263812,-0.006177938,-0.00779597,0.031036784
692,-141.257898,117.914432,2.394202,0.929858104,0.796114781,1.051398675,-0.006177938,-0.00779597,0.031036784
693,-91.578214,125.097037,-9.576807,0.791233639,0.415873598,0.935715494,-0.006030844,-0.008384345,0.032507722
694,-57.460839,71.227499,23.343467,0.505686646,0.170351988,0.906428644,-0.006030844,-0.008384345,0.032507722
695,-26.336219,57.46084,16.759411,0.532532926,0.161565851,0.907892966,-0.006030844,-0.008384345,0.032507722
696,-26.934768,53.869538,-1.795651,0.559379205,0.316298165,0.826865953,-0.006766313,-0.008384345,0.03397866
697,-50.876786,-2.394202,19.153613,0.438814985,0.306535882,0.736564832,-0.006766313,-0.008384345,0.03397866
698,-61.650692,-12.569559,35.314475,0.429052701,0.304583486,0.728266871,-0.006766313,-0.008384345,0.03397866
699,-72.424601,14.963761,31.124621,0.517401427,0.225997044,0.852736086,-0.006766313,-0.008384345,0.03397866
700,-10.773907,89.184011,-35.314474,0.685312742,0.120076147,0.985015087,-0.006325032,-0.007354688,0.034567035
701,58.657941,92.775315,-65.241995,0.623810296,0.124957288,0.920583996,-0.006325032,-0.007354688,0.034567035
702,61.650692,56.263739,-51.475336,0.626739042,0.218187156,0.888856473,-0.006325032,-0.007354688,0.034567035
703,65.840546,44.891281,-46.088382,0.599892762,0.170840061,0.869331906,-0.006325032,-0.007354688,0.034567035
704,62.249243,29.927521,-38.905777,0.533509174,0.149362997,0.809781957,-0.005736657,-0.007354688,0.034861222
705,64.643445,20.350714,-41.299979,0.551081244,0.173280632,0.837116412,-0.005736657,-0.007354688,0.034861222
706,60.453592,5.985504,-34.715924,0.48616208,0.189876555,0.791233639,-0.005736657,-0.007354688,0.034861222
707,66.439096,1.795651,-34.715924,0.535949745,0.190364628,0.801483996,-0.005589563,-0.007501782,0.035008316
708,45.489831,-0.59855,-23.343466,0.521794393,0.170840061,0.795138532,-0.005589563,-0.007501782,0.035008316
709,18.555063,-5.386954,-9.576807,0.499829256,0.176697452,0.795626606,-0.005589563,-0.007501782,0.035008316
710,24.540567,-1.795651,-16.160861,0.522770642,0.151803568,0.796114781,-0.005589563,-0.007501782,0.035008316
711,26.934769,0.59855,-17.956512,0.521794393,0.155220387,0.805388889,-0.005442469,-0.007648876,0.035302504
712,26.336218,1.197101,-16.759412,0.511055861,0.145458104,0.800995923,-0.005442469,-0.007648876,0.035302504
713,19.153614,0.59855,-11.971008,0.503246075,0.169375739,0.800995923,-0.005442469,-0.007648876,0.035302504
714,12.569558,0.598551,-7.781156,0.508615291,0.184507238,0.773173394,-0.005442469,-0.007648876,0.035302504
715,10.773758,2.992752,-5.386953,0.51544893,0.176209378,0.76097054,-0.005442469,-0.007354688,0.035302504
716,5.985504,3.591302,-4.189853,0.510567788,0.176697452,0.773173394,-0.005442469,-0.007354688,0.035302504
717,2.992752,4.189853,-1.795652,0.467125586,0.171328236,0.745350866,-0.005442469,-0.007354688,0.035302504
718,2.394202,1.197101,-2.394201,0.484697655,0.181578593,0.789769317,-0.005148282,-0.007648876,0.03515541
719,1.795651,4.189853,-2.992752,0.514472681,0.190852803,0.746327115,-0.005148282,-0.007648876,0.03515541
720,0,4.189853,-0.598551,0.514960856,0.193293374,0.75169633,-0.005148282,-0.007648876,0.03515541
721,-1.197101,4.788403,0,0.51203211,0.187924057,0.770732824,-0.005148282,-0.007648876,0.03515541
722,-2.394201,5.386954,0,0.516913252,0.191340877,0.755601223,-0.005736657,-0.007354688,0.03515541
723,0.59855,7.182605,-1.795651,0.511544037,0.185971662,0.760482365,-0.005736657,-0.007354688,0.03515541
724,-1.197101,6.584055,-1.795651,0.511055861,0.199638838,0.771709072,-0.005736657,-0.007354688,0.03515541
725,-2.394201,4.788403,0,0.500317329,0.189876555,0.754625076,-0.005736657,-0.007354688,0.03515541
726,-3.591303,8.379706,0.59855,0.501293578,0.206472477,0.752672579,-0.005589563,-0.007060501,0.035449597
727,-5.985354,7.781155,4.788404,0.496412436,0.214282263,0.736564832,-0.005589563,-0.007060501,0.035449597
728,-6.584055,6.584055,7.182605,0.494460041,0.202567482,0.753648828,-0.005589563,-0.007060501,0.035449597
729,-7.182605,4.189853,7.182605,0.499829256,0.194757696,0.754625076,-0.005589563,-0.007060501,0.035449597
730,-4.189853,4.189852,4.788403,0.490555046,0.193781448,0.756089399,-0.005589563,-0.007060501,0.035449597
731,-2.394201,3.591303,1.795651,0.494948114,0.187435984,0.756577472,-0.005883751,-0.007648876,0.034714128
732,-2.394202,3.591302,2.992752,0.497388685,0.188900306,0.749743935,-0.005883751,-0.007648876,0.034714128
733,-2.394202,5.985505,1.197101,0.496412436,0.203543731,0.762434862,-0.005883751,-0.007648876,0.034714128
734,-1.795651,1.795651,2.394202,0.490066972,0.197198267,0.754625076,-0.005883751,-0.007648876,0.034714128
735,1.795651,-1.197101,5.985504,0.482257085,0.188900306,0.750232008,-0.005883751,-0.007648876,0.034714128
736,1.197101,-4.189853,-0.598551,0.494460041,0.205008053,0.770244648,-0.005736657,-0.007943063,0.035449597
737,1.795651,-8.978256,2.992752,0.531556677,0.202079409,0.753648828,-0.005736657,-0.007943063,0.035449597
738,2.992752,-11.971008,4.189853,0.449553415,0.195733945,0.776102039,-0.005736657,-0.007943063,0.035449597
739,3.591303,-10.773908,2.992752,0.506662895,0.180114271,0.769268502,-0.005736657,-0.007943063,0.035449597
740,4.788403,-10.773907,4.189853,0.498853007,0.19768634,0.774149643,-0.005883751,-0.007501782,0.034419941
741,2.394202,-11.372458,4.788404,0.496900612,0.192317125,0.768292253,-0.005883751,-0.007501782,0.034419941
742,5.386954,-7.182605,-0.598551,0.504710398,0.191829052,0.76438736,-0.005883751,-0.007501782,0.034419941
743,7.781005,-13.76666,5.985504,0.495436188,0.166935168,0.757065647,-0.005883751,-0.007501782,0.034419941
744,9.576807,-7.182605,-4.189853,0.502269827,0.1776737,0.763411111,-0.005883751,-0.007501782,0.034419941
745,9.576807,-16.759411,-1.1971,0.497388685,0.1625421,0.773661468,-0.005736657,-0.007354688,0.035008316
746,10.175357,-25.139118,4.189853,0.518865749,0.178649949,0.783423751,-0.005736657,-0.007354688,0.035008316
747,11.971008,-22.744916,-4.788404,0.491531295,0.156196636,0.786352497,-0.005736657,-0.007354688,0.035008316
748,8.379706,-37.110125,2.992752,0.474935372,0.14838685,0.776102039,-0.005736657,-0.007354688,0.035008316
749,11.372458,-41.898529,2.992752,0.479816514,0.145458104,0.785864322,-0.005442469,-0.006913407,0.035302504
750,10.175357,-49.679685,2.394202,0.478352192,0.176697452,0.796114781,-0.005442469,-0.006913407,0.035302504
751,12.569558,-55.066638,7.182605,0.487138328,0.165470846,0.804900815,-0.005442469,-0.006913407,0.035302504
752,13.76666,-55.665189,8.978256,0.508615291,0.173280632,0.766827931,-0.005736657,-0.007648876,0.034419941
753,12.569559,-58.65794,9.576807,0.478840367,0.189388379,0.766827931,-0.005736657,-0.007648876,0.034419941
754,11.372458,-73.621701,11.971008,0.491043221,0.172304383,0.791721713,-0.005736657,-0.007648876,0.034419941
755,11.971008,-82.599958,10.773908,0.47005423,0.173768807,0.791233639,-0.005736657,-0.007648876,0.034419941
756,8.978256,-89.184011,11.372458,0.479816514,0.164494597,0.796114781,-0.006030844,-0.007354688,0.035596691
757,11.971008,-93.373865,13.766659,0.485185831,0.174256881,0.80782946,-0.006030844,-0.007354688,0.035596691
758,4.189853,-124.498487,22.146365,0.464685015,0.168887666,0.775613965,-0.006030844,-0.007354688,0.035596691
759,12.569559,-126.892688,26.336219,0.461756371,0.163518349,0.780007034,-0.005736657,-0.007354688,0.035890879
760,2.394202,-134.673843,31.124621,0.462732518,0.175233129,0.784888175,-0.005736657,-0.007354688,0.035890879
761,2.992752,-140.659347,34.117374,0.451993986,0.211353619,0.785376249,-0.005736657,-0.007354688,0.035890879
762,-2.992752,-163.404264,41.299979,0.471030479,0.216722834,0.790745464,-0.005736657,-0.007354688,0.035890879
763,-5.985504,-195.725985,46.686932,0.4441842,0.245521611,0.825889704,-0.006177938,-0.007207595,0.03633216
764,-24.540567,-229.84336,60.453592,0.422707136,0.260653109,0.813198777,-0.006177938,-0.007207595,0.03633216
765,-41.299979,-233.434662,70.628949,0.439303058,0.313369521,0.844926198,-0.006177938,-0.007207595,0.03633216
766,-54.468088,-256.179577,85.592709,0.479816514,0.308488379,0.817591845,-0.006177938,-0.007207595,0.03633216
767,-64.044745,-272.340439,103.549222,0.465173089,0.353882977,0.793186035,-0.005883751,-0.007060501,0.037361816
768,-82.599957,-282.515796,122.104285,0.533509174,0.360716616,0.794650459,-0.005883751,-0.007060501,0.037361816
769,-92.775314,-285.508548,138.265146,0.543271458,0.410504281,0.72240948,-0.005883751,-0.007060501,0.037361816
770,-86.78981,-269.946237,146.644851,0.691170133,0.375360041,0.705813558,-0.006030844,-0.006325032,0.038097285
771,-64.643445,-107.739075,101.753571,0.955240061,0.360716616,0.84639052,-0.006030844,-0.006325032,0.038097285
772,-46.088382,-209.492645,89.184012,0.922048318,0.299214169,0.898130683,-0.006030844,-0.006325032,0.038097285
773,34.715924,-253.785376,86.78981,1.114365443,0.284082671,0.874213048,-0.006030844,-0.006325032,0.038097285
774,99.359369,-213.682498,93.972415,1.48093945,0.378288787,1.178308461,-0.005736657,-0.006913407,0.040744973
775,53.869537,-70.030399,125.097037,1.59808685,0.560355454,1.27641947,-0.005736657,-0.006913407,0.040744973
776,-22.146365,69.431848,83.797058,1.742080632,0.634060754,1.207595311,-0.005736657,-0.006913407,0.040744973
777,-47.884033,146.046302,101.75357,1.631278695,0.647727931,1.194904281,-0.005736657,-0.006913407,0.040744973
778,-105.943424,181.360775,142.454999,1.64933894,0.688241488,0.994289297,-0.005442469,-0.006030844,0.041774629
779,-130.48399,202.310041,132.279642,1.474593884,0.66041896,1.013813863,-0.005442469,-0.006030844,0.041774629
780,-119.111533,228.047708,133.476742,1.461902956,0.604285729,0.946454027,-0.005442469,-0.006030844,0.041774629
781,-29.32897,168.192666,70.030399,1.176355963,0.570117737,1.010397044,-0.004854094,-0.004854094,0.044275223
782,55.066638,246.602771,-8.978256,1.085078593,0.653097248,1.059696636,-0.004854094,-0.004854094,0.044275223
783,83.797058,292.092603,-37.708676,0.597940265,0.707766055,1.176844037,-0.004854094,-0.004854094,0.044275223
784,58.05939,181.959326,-52.672437,-0.063454842,0.608190724,1.010885117,-0.004854094,-0.004854094,0.044275223
785,27.533319,70.628949,-132.878192,-0.923024567,0.758529969,1.159271967,-0.002500594,-0.000441281,0.049129317
786,314.837519,486.621487,-416.591089,2.469371254,0.773661468,1.805047401,-0.002500594,-0.000441281,0.049129317
787,408.809784,1371.877552,-615.309827,3.035584098,0.874213048,2.338556575,-0.002500594,-0.000441281,0.049129317
788,283.114346,1490.989084,-569.819995,1.866061774,0.908381142,2.150632518,-0.002500594,-0.000441281,0.049129317
789,166.995566,1181.538519,-596.754763,1.186118247,1.068970744,2.129643629,-0.000882563,0.001323844,0.051041536
790,4.788403,833.780728,-407.612833,1.216381346,0.943037207,1.609801631,-0.000882563,0.001323844,0.051041536
791,-64.044894,529.717117,-259.77088,1.007468298,0.789281142,1.134866259,-0.000882563,0.001323844,0.051041536
792,-77.811554,314.238968,-184.353528,0.697515596,0.605261978,0.800507747,-0.002206407,0.004412813,0.053983412
793,-134.673844,155.623108,-116.717331,0.398789602,0.451993986,0.560843527,-0.002206407,0.004412813,0.053983412
794,-189.141931,-34.715924,-27.533319,0.138624567,0.502269827,0.245033435,-0.002206407,0.004412813,0.053983412
795,-259.77088,-164.601364,86.78981,0.026358206,0.545712029,0.105920897,-0.002206407,0.004412813,0.053983412
796,-263.960583,-219.069452,156.820209,0.044906524,0.383169929,0.116171254,-0.007060501,0.007501782,0.053395037
797,-123.301386,-192.134683,129.88544,0.183042915,0.182066667,0.150827421,-0.007060501,0.007501782,0.053395037
798,38.307227,-111.928928,76.015903,0.396837105,0.066383588,0.337287156,-0.007060501,0.007501782,0.053395037
799,174.17817,-16.160861,10.773907,0.648216106,-0.032215596,0.546200102,-0.012355876,0.00897272,0.050158974
800,257.97508,73.621701,-47.884033,0.78098318,-0.11568318,0.647239857,-0.012355876,0.00897272,0.050158974
801,263.362182,107.739075,-61.052142,0.84639052,-0.083955657,0.646263609,-0.012355876,0.00897272,0.050158974
802,215.47815,80.804306,-35.913025,0.764875433,-0.013667176,0.540830887,-0.012355876,0.00897272,0.050158974
803,151.433255,6.584054,-14.36521,0.673109888,0.034656167,0.462732518,-0.019269283,0.00779597,0.040597879
804,97.563717,-83.797058,-2.992752,0.649680428,0.066871662,0.421242813,-0.019269283,0.00779597,0.040597879
805,64.643445,-150.834704,2.394201,0.663347604,0.092253619,0.397813354,-0.019269283,0.00779597,0.040597879
806,40.102878,-180.762226,-3.591302,0.732659837,0.119588073,0.435886239,-0.019269283,0.00779597,0.040597879
807,28.131869,-178.368023,-28.73042,0.844926198,0.144481855,0.500805505,-0.020004752,0.006030844,0.034714128
808,20.949265,-155.623108,-62.249243,0.991848726,0.157172885,0.573534557,-0.020004752,0.006030844,0.034714128
809,8.379706,-123.899936,-91.578214,1.121687156,0.173280632,0.664323853,-0.020004752,0.006030844,0.034714128
810,-8.978256,-108.337625,-105.344873,1.177332212,0.167423242,0.718016412,-0.019563471,0.005148282,0.029565847
811,-36.511576,-117.315882,-100.55647,1.159271967,0.189388379,0.712647197,-0.019563471,0.005148282,0.029565847
812,-71.82605,-134.075293,-77.811554,1.147557187,0.202567482,0.723385729,-0.019563471,0.005148282,0.029565847
813,-102.352121,-141.856448,-47.285482,1.162688787,0.258700714,0.75511315,-0.019563471,0.005148282,0.029565847
814,-125.695587,-124.498486,-11.971009,1.219798165,0.298726096,0.838580734,-0.017945439,0.002941875,0.024858846
815,-126.294137,-80.205756,21.547815,1.315468603,0.291404383,0.93278685,-0.017945439,0.002941875,0.024858846
816,-99.359369,-10.773907,43.694181,1.446283282,0.280665851,1.056279817,-0.017945439,0.002941875,0.024858846
817,-42.49708,53.270986,50.876785,1.530727115,0.203055657,1.113389195,-0.017945439,0.002941875,0.024858846
818,40.102878,87.986911,43.09563,1.547323038,0.063943017,1.112901121,-0.015886127,-0.002059313,0.020446033
819,119.710083,93.972416,38.905777,1.497047197,-0.041489704,1.113389195,-0.015886127,-0.002059313,0.020446033
820,167.594116,74.818802,42.497079,1.440425892,-0.086396228,1.09191213,-0.015886127,-0.002059313,0.020446033
821,169.988318,39.504327,44.891281,1.374042304,-0.085908155,1.021623649,-0.014709376,-0.004412813,0.019710564
822,140.060797,-1.197101,40.102878,1.30570632,-0.044906524,0.987455657,-0.014709376,-0.004412813,0.019710564
823,84.395609,-37.110126,35.913025,1.266657187,0.036120489,0.944501529,-0.014709376,-0.004412813,0.019710564
824,27.533319,-61.052142,29.32897,1.245668196,0.094206116,0.896666361,-0.014709376,-0.004412813,0.019710564
825,-8.379706,-78.410104,16.759412,1.217845668,0.105432722,0.891785219,-0.012650064,-0.006472126,0.018092533
826,-13.766659,-56.86229,-7.781155,1.347196024,0.078586442,0.948406524,-0.012650064,-0.006472126,0.018092533
827,-18.555063,-6.584054,-18.555063,1.504856983,0.086884404,0.950847095,-0.012650064,-0.006472126,0.018092533
828,-6.584055,65.840545,-26.934769,1.633719266,0.247962181,0.805388889,-0.010296564,-0.009119813,0.017798346
829,-55.665188,38.905777,-11.971008,1.632743017,0.031727421,0.756577472,-0.010296564,-0.009119813,0.017798346
830,-52.672437,-4.189853,-4.189853,1.5102263,-0.036608563,0.469078084,-0.010296564,-0.009119813,0.017798346
831,-46.686932,-110.731826,8.978256,1.296920285,-0.168887666,0.184019164,-0.010296564,-0.009119813,0.017798346
832,-44.292731,-223.259305,32.321722,1.163665036,-0.274808461,-0.069312232,-0.006177938,-0.011767501,0.017651252
833,-34.117374,-290.296952,58.657941,1.20173792,-0.357299796,-0.200615087,-0.006177938,-0.011767501,0.017651252
834,-16.759411,-284.311447,69.431848,1.388197655,-0.41733792,-0.212817941,-0.006177938,-0.011767501,0.017651252
835,-16.759412,-220.266552,62.249243,1.654220082,-0.505686646,-0.152291743,-0.006177938,-0.011767501,0.017651252
836,-41.299979,-165.798465,51.475336,1.806999898,-0.547176351,-0.217699083,-0.005295376,-0.012650064,0.018092533
837,-99.957919,-157.418759,58.05939,1.815297859,-0.490066972,-0.331429766,-0.005295376,-0.012650064,0.018092533
838,-175.973822,-186.74773,87.986911,1.768438838,-0.458827625,-0.440279307,-0.005295376,-0.012650064,0.018092533
839,-229.843359,-207.696994,117.914432,1.80846422,-0.38805107,-0.473959225,-0.003971532,-0.01367972,0.018533814
840,-225.653507,-205.901343,112.527478,1.870454842,-0.369990826,-0.422219062,-0.003971532,-0.01367972,0.018533814
841,-174.178021,-171.783969,58.657941,1.977351886,-0.420266565,-0.290428135,-0.003971532,-0.01367972,0.018533814
842,-503.380899,-629.675037,38.307226,0.969883486,0.862010194,0.346073191,-0.003971532,-0.01367972,0.018533814
843,-231.639011,-569.221444,290.296952,1.469712742,-0.332406014,-0.11568318,-0.003677344,-0.013091345,0.019710564
844,-49.679684,320.823022,-68.234748,0.003904893,-0.163518349,0.257724465,-0.003677344,-0.013091345,0.019710564
845,-322.020123,329.202729,428.562098,-0.359252294,1.875824057,1.126568298,-0.003677344,-0.013091345,0.019710564
846,-154.426157,-201.71149,392.649072,-0.503246075,0.643334964,1.315956677,-0.003677344,-0.013091345,0.019710564
847,316.034769,-372.896909,-175.375272,0.044418451,-1.33499317,0.403670744,-0.005001188,-0.011767501,0.020887315
848,392.649072,-636.259091,-63.446344,0.09469419,-1.149997757,0.65114475,-0.005001188,-0.011767501,0.020887315
849,254.383926,-332.794031,234.631763,0.36364526,-0.980622018,1.350124771,-0.005001188,-0.011767501,0.020887315
850,219.668003,186.74773,175.973822,1.505345158,-0.690682059,1.935862181,-0.005295376,-0.011914595,0.020446033
851,146.046301,356.137497,-16.160861,1.813345362,0.191340877,1.743545056,-0.005295376,-0.011914595,0.020446033
852,-17.357962,228.047708,-144.25065,1.253966157,1.109484302,1.211500204,-0.005295376,-0.011914595,0.020446033
853,-93.972415,61.650692,-183.156427,0.768780326,1.168546177,0.847854944,-0.005295376,-0.011914595,0.020446033
854,-106.541974,14.963761,-45.489832,0.677014781,0.461756371,0.998682263,-0.007060501,-0.010884939,0.020740221
855,-55.066638,110.731827,79.008655,0.825889704,-0.061502446,1.146580938,-0.007060501,-0.010884939,0.020740221
856,-23.343466,140.060797,56.263739,0.847854944,-0.025870031,1.151950255,-0.007060501,-0.010884939,0.020740221
857,-124.498487,114.921679,21.547815,0.858105301,0.662371356,0.909845464,-0.008531438,-0.01014947,0.022799534
858,-193.930334,84.395609,24.540567,0.767316004,0.81710367,0.771709072,-0.008531438,-0.01014947,0.022799534
859,-205.901343,63.446344,71.227499,0.516913252,0.520818145,0.74242212,-0.008531438,-0.01014947,0.022799534
860,-214.879599,43.69418,113.126029,0.185483486,0.283594495,0.805388889,-0.008531438,-0.01014947,0.022799534
861,-256.179727,19.752164,126.892688,0.399765749,0.508127217,0.74242212,-0.008678532,-0.008678532,0.02382919
862,-225.653507,58.657941,84.395608,0.591106626,0.596475943,0.901547503,-0.008678532,-0.008678532,0.02382919
863,174.776721,340.575186,-199.915838,1.356958308,-0.196710194,1.624445056,-0.008678532,-0.008678532,0.02382919
864,422.576743,301.070859,-309.450565,0.828818451,-0.370967074,1.167081753,-0.009119813,-0.008237251,0.024417565
865,326.209976,80.205755,-192.733234,0.65114475,0.402694495,0.871284404,-0.009119813,-0.008237251,0.024417565
866,225.653507,42.49708,-111.330377,0.572558308,0.077610194,0.880558614,-0.009119813,-0.008237251,0.024417565
867,163.404263,0,-73.02315,0.590618552,0.070776555,0.90008318,-0.009119813,-0.008237251,0.024417565
868,80.205756,8.379705,-45.489832,0.545223955,0.075657798,0.842485627,-0.009266907,-0.006619219,0.024417565
869,58.05939,2.992752,-35.913025,0.531068603,0.072729052,0.818567992,-0.009266907,-0.006619219,0.024417565
870,51.475336,2.992753,-31.723172,0.527651784,0.096646687,0.809781957,-0.009266907,-0.006619219,0.024417565
871,38.307226,-2.992753,-22.744916,0.47932844,0.152291743,0.795626606,-0.009708189,-0.007060501,0.024564659
872,22.744916,-0.59855,-12.569558,0.48274526,0.195733945,0.781959429,-0.009708189,-0.007060501,0.024564659
873,11.971008,5.386954,-5.985504,0.486650153,0.19768634,0.759994292,-0.009708189,-0.007060501,0.024564659
874,4.788254,5.386954,-2.394202,0.497876758,0.226973293,0.76097054,-0.009708189,-0.007060501,0.024564659
875,-4.788254,7.182605,2.394202,0.516425178,0.234783078,0.749743935,-0.00897272,-0.007060501,0.024564659
876,-10.175357,10.175357,4.189852,0.498853007,0.233318756,0.763899185,-0.00897272,-0.007060501,0.024564659
877,-12.569558,10.773907,5.985505,0.5027579,0.244057288,0.752672579,-0.00897272,-0.007060501,0.024564659
878,-8.978257,10.773908,4.788403,0.503734149,0.224532722,0.774637717,-0.00897272,-0.007060501,0.025153034
879,-4.189853,5.386953,1.795651,0.493971865,0.199638838,0.770244648,-0.00897272,-0.007060501,0.025153034
880,0,0.598551,1.795651,0.486650153,0.19768634,0.775613965,-0.00897272,-0.007060501,0.025153034
881,7.182605,1.795651,-2.394201,0.494948114,0.181578593,0.778054536,-0.00897272,-0.007060501,0.025153034
882,2.992752,0,-0.598551,0.499829256,0.176209378,0.765363507,-0.009561095,-0.007060501,0.024564659
883,1.795652,2.394202,1.197101,0.495924363,0.179138022,0.768780326,-0.009561095,-0.007060501,0.024564659
884,1.197101,4.788403,0,0.498853007,0.188412232,0.759994292,-0.009561095,-0.007060501,0.024564659
885,1.795651,3.591302,0,0.495924363,0.162054027,0.768292253,-0.009561095,-0.007060501,0.024564659
886,1.197101,1.795652,-0.59855,0.487138328,0.186459735,0.751208257,-0.009855282,-0.006619219,0.02382919
887,0,2.992752,-0.598551,0.496900612,0.180114271,0.779518858,-0.009855282,-0.006619219,0.02382919
888,2.394201,4.788403,-2.394201,0.5027579,0.163518349,0.751208257,-0.009855282,-0.006619219,0.02382919
889,1.197101,2.992752,-1.795652,0.505686646,0.17181631,0.76097054,-0.009855282,-0.006619219,0.02382919
890,2.394202,4.189853,-4.189852,0.504710398,0.164006524,0.765851682,-0.009855282,-0.006619219,0.02382919
891,1.197101,4.189853,-2.394202,0.496900612,0.168887666,0.75511315,-0.009708189,-0.006325032,0.024270471
892,0.59855,0.59855,-1.795651,0.492995617,0.170351988,0.757065647,-0.009708189,-0.006325032,0.024270471
893,0.59855,1.795652,-0.598551,0.510079613,0.178161774,0.750232008,-0.009708189,-0.006325032,0.024270471
894,1.795652,0,0.598551,0.492507543,0.196710194,0.739005403,-0.009708189,-0.006325032,0.024270471
895,3.591302,-3.591303,-0.598551,0.496412436,0.183042915,0.757065647,-0.010002376,-0.007060501,0.023976284
896,8.379706,-4.189853,-0.59855,0.487138328,0.191829052,0.744862691,-0.010002376,-0.007060501,0.023976284
897,11.970859,-8.379706,4.189853,0.483721509,0.168887666,0.762434862,-0.010002376,-0.007060501,0.023976284
898,11.372457,-8.978256,0.59855,0.509103466,0.185971662,0.761946789,-0.010002376,-0.007060501,0.023976284
899,4.788404,-16.160861,11.372458,0.425635882,0.194269623,0.765363507,-0.010002376,-0.007060501,0.023976284
900,4.788403,-9.576807,-0.59855,0.497876758,0.210865443,0.767316004,-0.010002376,-0.006325032,0.024564659
901,3.591303,-19.752163,11.372457,0.454922732,0.184507238,0.7844,-0.010002376,-0.006325032,0.024564659
902,2.394201,-8.978257,-6.584054,0.499829256,0.178161774,0.768292253,-0.010002376,-0.006325032,0.024564659
903,6.584055,-14.96376,-2.394202,0.485673904,0.169375739,0.770732824,-0.010002376,-0.006325032,0.024564659
904,4.788403,-39.504327,21.547815,0.517889501,0.174256881,0.761458614,-0.010002376,-0.006325032,0.024564659
905,5.985504,-20.949265,-11.372458,0.476399796,0.13325525,0.781471356,-0.010002376,-0.007060501,0.024417565
906,4.788404,-40.701428,2.992752,0.509591539,0.155708563,0.785376249,-0.010002376,-0.007060501,0.024417565
907,5.985504,-44.292731,4.788404,0.477375943,0.153267992,0.782935678,-0.010002376,-0.007060501,0.024417565
908,4.788403,-58.05939,7.182605,0.485185831,0.147410601,0.789769317,-0.010002376,-0.007060501,0.024417565
909,4.189853,-66.439096,11.971008,0.480304689,0.181578593,0.795138532,-0.010002376,-0.007060501,0.024417565
910,8.379706,-68.833298,13.168109,0.478352192,0.170840061,0.813198777,-0.009855282,-0.007354688,0.024417565
911,5.985504,-76.614453,15.562311,0.460291947,0.184019164,0.800507747,-0.009855282,-0.007354688,0.024417565
912,8.379706,-87.388361,17.357962,0.431493272,0.17181631,0.788304893,-0.009855282,-0.007354688,0.024417565
913,5.985504,-95.768066,16.759412,0.464685015,0.167911417,0.79367421,-0.009708189,-0.006325032,0.024711752
914,10.773907,-97.563718,16.160861,0.464685015,0.137648318,0.761946789,-0.009708189,-0.006325032,0.024711752
915,14.963761,-110.731826,14.96376,0.475423547,0.147898675,0.789281142,-0.009708189,-0.006325032,0.024711752
916,10.175357,-119.111533,18.555063,0.451993986,0.145458104,0.769268502,-0.009708189,-0.006325032,0.024711752
917,-16.759412,-156.820209,35.314475,0.326060449,-0.00341682,0.791721713,-0.010002376,-0.006913407,0.025300128
918,4.189853,-146.644851,28.131869,0.473959225,0.179626096,0.789281142,-0.010002376,-0.006913407,0.025300128
919,3.591303,-163.404264,33.518823,0.45004159,0.171328236,0.808805708,-0.010002376,-0.006913407,0.025300128
920,-5.386954,-175.375271,43.09563,0.437838736,0.248450255,0.812710703,-0.010002376,-0.006766313,0.026035596
921,-23.343466,-207.098444,54.468088,0.447601019,0.256748216,0.794650459,-0.010002376,-0.006766313,0.026035596
922,-25.737668,-243.011469,70.030398,0.459803874,0.27236789,0.859569623,-0.010002376,-0.006766313,0.026035596
923,-31.124622,-257.376678,80.804306,0.480792762,0.312881448,0.828818451,-0.010002376,-0.006766313,0.026035596
924,-43.69418,-296.881006,118.512983,0.458827625,0.335822732,0.78781682,-0.011473314,-0.006472126,0.027212346
925,-40.102728,-314.837518,147.841952,0.575487054,0.345096942,0.719480734,-0.011473314,-0.006472126,0.027212346
926,-23.343466,-358.531699,180.762226,0.587689908,0.338263405,0.701908665,-0.011473314,-0.006472126,0.027212346
927,-16.759412,-350.750543,190.339032,0.627227115,0.404646891,0.644311111,-0.011473314,-0.006472126,0.027212346
928,-22.146365,-234.631763,117.914431,0.9035,0.447112844,0.854688481,-0.012208783,-0.006472126,0.029271659
929,43.09563,-356.736047,89.184012,1.18660632,0.326548624,0.895690112,-0.012208783,-0.006472126,0.029271659
930,130.48384,-357.334598,87.388361,1.354029664,0.419290316,1.218821916,-0.012208783,-0.006472126,0.029271659
931,104.746323,-174.178171,102.352121,1.574169317,0.570117737,1.535120082,-0.012944251,-0.006177938,0.031330972
932,-26.934769,52.073887,104.147772,1.780641692,0.597940265,1.515595515,-0.012944251,-0.006177938,0.031330972
933,-136.469494,184.952078,80.205756,2.064724363,0.532532926,1.155367074,-0.012944251,-0.006177938,0.031330972
934,-161.009912,310.647665,91.578213,1.909503976,0.596964016,1.202714169,-0.012944251,-0.006177938,0.031330972
935,-195.725986,335.786783,64.044894,1.831893782,0.695563201,1.098257594,-0.014562283,-0.004118625,0.03633216
936,-205.302792,342.370837,120.907184,1.781617941,0.614048012,1.072387564,-0.014562283,-0.004118625,0.03633216
937,-115.520231,234.631763,86.19126,1.252989908,0.65456157,1.12803262,-0.014562283,-0.004118625,0.03633216
938,-4.788403,278.924494,-7.781155,0.981598267,0.653585321,1.272026402,-0.013385533,-0.002500594,0.040303692
939,65.241995,373.495458,-109.534726,0.340703976,0.753648828,1.329623955,-0.013385533,-0.002500594,0.040303692
940,118.512983,220.266553,-55.665189,-0.616488583,0.638941896,0.881046687,-0.013385533,-0.002500594,0.040303692
941,198.120187,-256.179577,-18.555063,-1.369649337,0.200126911,-0.048323344,-0.013385533,-0.002500594,0.040303692
942,331.59678,135.870944,-263.362182,2.54356473,0.418802243,1.757212232,-0.012208783,-0.000735469,0.042657192
943,266.953485,1058.237134,-469.862076,2.158930479,0.830282773,2.004198165,-0.012208783,-0.000735469,0.042657192
944,147.841953,991.798037,-368.108505,1.705960245,0.836140163,1.865573598,-0.012208783,-0.000735469,0.042657192
945,0,997.783542,-388.45922,1.272514475,1.074828135,1.843120387,-0.01014947,-0.000147094,0.045010692
946,-56.263739,972.045874,-407.014282,1.134378084,1.038219572,1.422853823,-0.01014947,-0.000147094,0.045010692
947,-121.505734,806.84596,-298.078107,1.076292457,0.93620367,1.171962895,-0.01014947,-0.000147094,0.045010692
948,-120.907184,587.177957,-220.865103,0.981598267,0.819544241,1.085566667,-0.01014947,-0.000147094,0.045010692
949,-72.4246,394.444723,-196.324536,0.862010194,0.613559939,0.811246279,-0.009414001,0.002059313,0.045746161
950,-48.482584,246.004221,-165.199915,0.670669317,0.447112844,0.552057492,-0.009414001,0.002059313,0.045746161
951,-44.891132,82.001407,-86.78981,0.468589908,0.386098573,0.266998675,-0.009414001,0.002059313,0.045746161
952,3.591303,-39.504328,-17.357962,0.31092895,0.271879817,0.11568318,-0.010884939,0.002059313,0.045746161
953,60.453442,-104.746322,11.971009,0.288475637,0.126909786,0.136672069,-0.010884939,0.002059313,0.045746161
954,137.068045,-112.527478,-10.773908,0.375360041,-0.025870031,0.198662589,-0.010884939,0.002059313,0.045746161
955,203.507141,-86.19126,-50.876785,0.474447299,-0.123004893,0.27236789,-0.010884939,0.002059313,0.045746161
956,215.47815,-44.292731,-70.628949,0.567677166,-0.138624567,0.324108053,-0.013238439,0.00117675,0.044275223
957,191.536133,-16.759411,-69.431848,0.599404587,-0.123004893,0.343144546,-0.013238439,0.00117675,0.044275223
958,143.652099,-16.160862,-59.256491,0.597940265,-0.097622936,0.352418654,-0.013238439,0.00117675,0.044275223
959,82.001407,-36.511575,-44.292731,0.592082875,-0.07712212,0.357787971,-0.013238439,0.00117675,0.044275223
960,31.124622,-66.439096,-26.934769,0.593059123,-0.073705301,0.35290683,-0.014562283,0.000735469,0.042363004
961,-0.598551,-101.753571,-17.357962,0.586225484,-0.076633945,0.366574006,-0.014562283,0.000735469,0.042363004
962,-29.927521,-124.498486,-8.978256,0.593059123,-0.095670438,0.375848216,-0.014562283,0.000735469,0.042363004
963,-53.869537,-140.060797,7.182605,0.632108257,-0.076633945,0.421242813,-0.014709376,0.000441281,0.038391473
964,-68.234747,-140.659347,18.555063,0.68384842,-0.055645056,0.507150968,-0.014709376,0.000441281,0.038391473
965,-75.417352,-125.695588,19.153613,0.766339755,-0.016595923,0.594523445,-0.014709376,0.000441281,0.038391473
966,-87.986911,-104.746322,-0.59855,0.874213048,0.041489704,0.678479205,-0.014709376,0.000441281,0.038391473
967,-100.55647,-93.972415,-28.73042,0.949382671,0.063454842,0.700444343,-0.016915783,-0.000588375,0.038097285
968,-104.746323,-95.169516,-38.307227,1.005515902,0.092741794,0.72240948,-0.016915783,-0.000588375,0.038097285
969,-101.75357,-104.746323,-29.32897,1.006003976,0.108849541,0.707766055,-0.016915783,-0.000588375,0.038097285
970,-101.155021,-114.323129,-13.168109,1.012837615,0.113730683,0.69653945,-0.016915783,-0.000588375,0.038097285
971,-98.760818,-116.717331,7.781155,1.003075331,0.117635576,0.71313527,-0.019269283,-0.000882563,0.036479254
972,-90.381113,-111.330377,23.942017,1.038219572,0.132279001,0.746327115,-0.019269283,-0.000882563,0.036479254
973,-82.599957,-94.570966,35.314474,1.146092864,0.14252946,0.837604485,-0.019269283,-0.000882563,0.036479254
974,-68.833148,-62.847794,35.314475,1.316932926,0.148874924,0.9469421,-0.02265244,-0.002941875,0.035596691
975,-49.679685,-8.978256,33.518823,1.479963201,0.14252946,1.059696636,-0.02265244,-0.002941875,0.035596691
976,-14.365209,49.679685,32.321722,1.662518043,0.092741794,1.117294088,-0.02265244,-0.002941875,0.035596691
977,31.124621,106.541973,29.927521,1.77331998,0.00927421,1.170498573,-0.02265244,-0.002941875,0.035596691
978,82.001257,149.637604,23.343466,1.840679817,-0.041001631,1.208083384,-0.02735944,-0.009414001,0.030154222
979,134.673844,170.586869,19.153614,1.852394597,-0.13911264,1.17586789,-0.02735944,-0.009414001,0.030154222
980,164.601364,165.798464,17.357962,1.783082263,-0.200126911,1.126568298,-0.02735944,-0.009414001,0.030154222
981,159.21441,128.68834,25.139117,1.6727684,-0.219651478,1.03333843,-0.027947815,-0.013385533,0.025153034
982,129.28689,73.621701,31.723172,1.570752497,-0.186947808,0.963049949,-0.027947815,-0.013385533,0.025153034
983,67.037646,20.949264,45.489832,1.468736595,-0.13911264,0.89080897,-0.027947815,-0.013385533,0.025153034
984,4.189853,-22.744915,56.862289,1.419437003,-0.116171254,0.823449134,-0.027947815,-0.013385533,0.025153034
985,-37.110125,-50.278235,68.833298,1.419437003,-0.089324975,0.730219266,-0.026476878,-0.018386721,0.019563471
986,-77.811554,-69.431848,95.768066,1.450188175,-0.072240979,0.621369725,-0.026476878,-0.018386721,0.019563471
987,-89.782563,-73.621702,125.097037,1.492654128,-0.040025382,0.557426809,-0.026476878,-0.018386721,0.019563471
988,-67.636197,-57.460839,133.476742,1.549763609,-0.077610194,0.460291947,-0.022799534,-0.020887315,0.014562283
989,-22.744915,-42.49708,103.549222,1.591253313,-0.140576962,0.37633629,-0.022799534,-0.020887315,0.014562283
990,32.321722,-31.124621,65.840546,1.58734842,-0.186947808,0.237711723,-0.022799534,-0.020887315,0.014562283
991,59.256491,-75.417353,47.285483,1.555620897,-0.280177778,0.049787666,-0.022799534,-0.020887315,0.014562283
992,52.672437,-146.644851,52.073886,1.527798369,-0.308976453,-0.198662589,-0.015444845,-0.021622783,0.011914595
993,58.05939,-218.470902,52.073886,1.432127931,-0.320691233,-0.449553415,-0.015444845,-0.021622783,0.011914595
994,38.307227,-295.085355,44.292731,1.356958308,-0.311905199,-0.629667686,-0.015444845,-0.021622783,0.011914595
995,4.189852,-328.604177,28.730419,1.392102548,-0.274808461,-0.670181244,-0.015444845,-0.021622783,0.011914595
996,-33.518823,-297.479557,1.795652,1.515595515,-0.243569113,-0.569629664,-0.013532626,-0.022358252,0.01132622
997,-85.592709,-222.062204,-18.555063,1.692292966,-0.147898675,-0.392932212,-0.013532626,-0.022358252,0.01132622
998,-156.221658,-136.469494,-16.759412,1.834334353,-0.06199052,-0.312393272,-0.013532626,-0.022358252,0.01132622
999,-195.127436,-91.578214,0.598551,1.891931804,0,-0.271391641,-0.012355876,-0.023682096,0.010590751
1000,-312.443167,-324.414325,62.847793,-1.231512946,0.387562895,0.49201947,-0.012355876,-0.023682096,0.010590751
1001,-210.091195,-685.340225,218.470902,2.225802141,-0.130814679,-0.828818451,-0.012355876,-0.023682096,0.010590751
1002,-80.205756,13.76666,9.576806,0.80782946,-0.431005097,-0.304583486,-0.012355876,-0.023682096,0.010590751
1003,-63.446344,307.654913,-29.92752,0.270903568,0.462244444,0.274808461,-0.012797158,-0.024270471,0.011914595
1004,-105.344873,-16.759412,316.633169,-1.44823578,1.264704689,1.330112029,-0.012797158,-0.024270471,0.011914595
1005,-51.475336,-326.209976,140.060797,-0.636501325,0.878118043,1.063601529,-0.012797158,-0.024270471,0.011914595
1006,108.936176,-319.625921,-139.462246,0.273832212,-0.346073191,0.387074822,-0.015591939,-0.023535002,0.011473314
1007,216.0767,-575.206949,-86.19126,0.258212538,-0.741934047,0.537902141,-0.015591939,-0.023535002,0.011473314
1008,230.441909,-338.779535,109.534726,0.251379001,-0.933274924,1.115341692,-0.015591939,-0.023535002,0.011473314
1009,177.769324,121.505734,215.478149,1.180260856,-0.652120999,1.852882671,-0.015591939,-0.023535002,0.011473314
1010,182.557877,318.428821,26.336218,1.538536901,-0.136672069,1.666422936,-0.017798346,-0.023682096,0.011767501
1011,86.78981,156.820209,-144.8492,0.903011825,0.842485627,0.890320897,-0.017798346,-0.023682096,0.011767501
1012,-137.068045,-36.511576,-105.943423,0.503734149,1.489237411,0.614048012,-0.017798346,-0.023682096,0.011767501
1013,-216.675251,-21.547815,-20.350715,0.688729562,1.123639551,0.79025739,-0.02029894,-0.02500594,0.012944251
1014,-141.257748,58.657941,59.855042,0.77512579,0.316298165,0.96549052,-0.02029894,-0.02500594,0.012944251
1015,-165.798465,122.702835,122.104285,0.971835984,0.259676962,1.485332416,-0.02029894,-0.02500594,0.012944251
1016,-194.528885,213.682498,41.299978,1.330600102,0.583784913,1.045053211,-0.02029894,-0.02500594,0.012944251
1017,-214.281048,147.243402,31.723172,0.769268502,0.773173394,0.808317635,-0.022064065,-0.024270471,0.015003564
1018,-193.331784,54.468088,90.979663,0.474447299,0.45004159,0.763411111,-0.022064065,-0.024270471,0.015003564
1019,-143.6521,84.994159,50.876786,0.634548828,0.339727727,0.938644241,-0.022064065,-0.024270471,0.015003564
1020,-88.585461,137.068045,-0.598551,0.730219266,0.302142915,0.906916718,-0.024270471,-0.021328596,0.014415189
1021,13.766659,156.820209,-61.650693,0.746815189,0.267974822,1.013325688,-0.024270471,-0.021328596,0.014415189
1022,174.178171,198.120187,-161.608612,0.903988073,-0.014155352,1.253478084,-0.024270471,-0.021328596,0.014415189
1023,220.865103,155.024558,-170.586868,0.728754944,-0.041001631,1.025040469,-0.024270471,-0.021328596,0.014415189
1024,158.01731,48.482583,-99.359369,0.525699286,0.231366259,0.824425382,-0.024417565,-0.019857658,0.015150658
1025,122.104284,21.547815,-63.446344,0.562307951,0.202567482,0.829794699,-0.024417565,-0.019857658,0.015150658
1026,114.92168,24.540567,-64.044894,0.559379205,0.120564322,0.855176656,-0.024417565,-0.019857658,0.015150658
1027,96.965167,8.379706,-49.679685,0.531068603,0.181578593,0.801483996,-0.024417565,-0.020151846,0.015003564
1028,79.008655,2.394202,-38.307226,0.549616922,0.167911417,0.820520489,-0.024417565,-0.020151846,0.015003564
1029,68.234747,-3.591303,-31.124622,0.523258716,0.145458104,0.804900815,-0.024417565,-0.020151846,0.015003564
1030,46.088382,-4.189853,-22.146365,0.51544893,0.174744954,0.78781682,-0.024417565,-0.020151846,0.015003564
1031,17.956513,-4.788403,-5.985504,0.494948114,0.191829052,0.777078287,-0.024417565,-0.020004752,0.014709376
1032,5.985504,0,-1.197101,0.510079613,0.200126911,0.780495107,-0.024417565,-0.020004752,0.014709376
1033,3.591302,1.795651,-1.197101,0.509103466,0.203543731,0.782935678,-0.024417565,-0.020004752,0.014709376
1034,6.584055,3.591303,-1.795651,0.517889501,0.19524577,0.776102039,-0.025594315,-0.019857658,0.01485647
1035,4.189703,3.591302,-1.795651,0.504222324,0.221115902,0.766339755,-0.025594315,-0.019857658,0.01485647
1036,1.795651,4.189853,1.1971,0.513984608,0.23380683,0.760482365,-0.025594315,-0.019857658,0.01485647
1037,2.394202,5.985504,0,0.520818145,0.229901937,0.76438736,-0.025594315,-0.019857658,0.01485647
1038,4.189853,3.591303,-0.59855,0.517889501,0.232342508,0.771709072,-0.025594315,-0.019269283,0.015003564
1039,8.379706,1.197101,-4.189853,0.517889501,0.199638838,0.785376249,-0.025594315,-0.019269283,0.015003564
1040,7.781155,-2.394202,-2.394202,0.509103466,0.198662589,0.758529969,-0.025594315,-0.019269283,0.015003564
1041,8.978256,-1.795651,-2.992752,0.503734149,0.187435984,0.749743935,-0.025153034,-0.019563471,0.014709376
1042,2.394202,0,-0.59855,0.511055861,0.228437615,0.739005403,-0.025153034,-0.019563471,0.014709376
1043,-2.992752,2.992752,3.591302,0.507150968,0.226485117,0.759994292,-0.025153034,-0.019563471,0.014709376
1044,-6.584055,7.781155,5.985505,0.520330071,0.219651478,0.735588583,-0.025153034,-0.019563471,0.014709376
1045,-8.379705,11.971008,6.584054,0.526675535,0.221603976,0.74583894,-0.025447221,-0.019857658,0.015444845
1046,-10.773908,14.36521,5.386954,0.524234964,0.232342508,0.736076656,-0.025447221,-0.019857658,0.015444845
1047,-13.76651,16.160862,7.781155,0.52130632,0.257236391,0.759994292,-0.025447221,-0.019857658,0.015444845
1048,-9.576806,14.96376,3.591303,0.528139857,0.231366259,0.744374618,-0.025447221,-0.019857658,0.015444845
1049,-5.985505,11.971008,0,0.523746891,0.228925688,0.735588583,-0.025447221,-0.019857658,0.015444845
1050,-2.992752,10.773908,2.394201,0.580368196,0.238199898,0.706301733,-0.025741409,-0.020004752,0.015150658
1051,-2.394201,3.591302,1.197101,0.496900612,0.213306014,0.766827931,-0.025741409,-0.020004752,0.015150658
1052,-1.197101,4.189853,1.197101,0.505686646,0.20451998,0.737052905,-0.025741409,-0.020004752,0.015150658
1053,4.788403,8.978256,-2.992752,0.530580428,0.211841692,0.733148012,-0.025741409,-0.020004752,0.015150658
1054,2.394202,-1.1971,1.795651,0.505686646,0.188900306,0.691658308,-0.025594315,-0.019563471,0.015297752
1055,2.394202,0.59855,-1.197101,0.531556677,0.225508869,0.753648828,-0.025594315,-0.019563471,0.015297752
1056,0,-2.992752,-1.1971,0.54131896,0.219651478,0.74242212,-0.025594315,-0.019563471,0.015297752
1057,-0.598551,-6.584055,4.189852,0.500317329,0.188900306,0.76097054,-0.025594315,-0.019563471,0.015297752
1058,2.992752,0,0,0.516913252,0.226485117,0.736076656,-0.025594315,-0.019563471,0.015297752
1059,-2.992752,-14.36521,8.978257,0.526187462,0.242104791,0.754625076,-0.025447221,-0.019563471,0.015297752
1060,2.992752,-3.591302,4.788403,0.503246075,0.223068298,0.759506218,-0.025447221,-0.019563471,0.015297752
1061,0,-11.971008,5.985504,0.52472314,0.232342508,0.765851682,-0.025447221,-0.019563471,0.015297752
1062,3.591303,-4.788404,-7.781155,0.512520183,0.208424873,0.794650459,-0.025447221,-0.019563471,0.015297752
1063,6.584054,-29.32897,19.153613,0.456875229,0.189388379,0.783911927,-0.025447221,-0.019563471,0.015297752
1064,8.379556,-25.737668,-5.985504,0.509103466,0.189876555,0.751208257,-0.026329784,-0.019269283,0.015297752
1065,17.357962,-24.540567,-5.985504,0.531068603,0.178649949,0.74242212,-0.026329784,-0.019269283,0.015297752
1066,10.773908,-42.497079,2.992752,0.511544037,0.190852803,0.760482365,-0.026329784,-0.019269283,0.015297752
1067,13.168109,-38.307227,-2.394202,0.509103466,0.180602345,0.774637717,-0.026329784,-0.019269283,0.015297752
1068,13.168109,-40.701428,-2.992752,0.516913252,0.177185525,0.77854261,-0.026623971,-0.019416377,0.01603322
1069,11.971009,-47.884033,-2.394202,0.505686646,0.187435984,0.766339755,-0.026623971,-0.019416377,0.01603322
1070,14.365209,-52.073886,1.795652,0.505198471,0.183042915,0.779030785,-0.026623971,-0.019416377,0.01603322
1071,18.555063,-56.86229,5.386953,0.510567788,0.192805199,0.76097054,-0.026623971,-0.019416377,0.01603322
1072,14.963761,-56.862289,5.386954,0.518865749,0.198174516,0.770732824,-0.026623971,-0.019416377,0.01603322
1073,11.372458,-58.059391,3.591303,0.524234964,0.189388379,0.752672579,-0.026035596,-0.019857658,0.015739033
1074,11.372458,-64.643444,1.795651,0.52130632,0.180114271,0.740957798,-0.026035596,-0.019857658,0.015739033
1075,7.781155,-73.621701,4.189853,0.506662895,0.1776737,0.749743935,-0.026035596,-0.019857658,0.015739033
1076,11.372458,-82.001407,13.168109,0.485185831,0.188412232,0.69312263,-0.026035596,-0.019857658,0.015739033
1077,13.168109,-83.198508,11.971008,0.508615291,0.202079409,0.805877064,-0.02735944,-0.018828002,0.016915783
1078,17.357962,-98.162268,18.555063,0.522770642,0.15912528,0.770732824,-0.02735944,-0.018828002,0.016915783
1079,17.956512,-103.549222,19.153613,0.522770642,0.202567482,0.740957798,-0.02735944,-0.018828002,0.016915783
1080,11.971009,-108.337625,19.752164,0.495436188,0.191829052,0.746815189,-0.027947815,-0.019857658,0.018386721
1081,12.569558,-114.323129,20.949265,0.503246075,0.21623476,0.735588583,-0.027947815,-0.019857658,0.018386721
1082,16.160862,-133.476743,22.146365,0.508127217,0.214282263,0.74242212,-0.027947815,-0.019857658,0.018386721
1083,15.56231,-149.637604,20.949264,0.507639042,0.215258512,0.732659837,-0.027947815,-0.019857658,0.018386721
1084,5.985505,-173.57962,20.949265,0.509591539,0.212329766,0.747791437,-0.030007128,-0.018680908,0.02147569
1085,-1.795652,-210.689746,12.569559,0.478840367,0.198174516,0.737540979,-0.030007128,-0.018680908,0.02147569
1086,-16.160861,-244.208569,16.759411,0.520330071,0.266510499,0.795138532,-0.030007128,-0.018680908,0.02147569
1087,-28.73042,-301.070859,41.299979,0.497876758,0.27822528,0.824425382,-0.030007128,-0.018680908,0.02147569
1088,-38.905777,-358.531699,54.468088,0.454434557,0.312881448,0.800019674,-0.030742597,-0.018386721,0.024417565
1089,-22.146365,-354.940396,16.759411,0.386098573,0.293844954,0.720456983,-0.030742597,-0.018386721,0.024417565
1090,-29.927521,-352.546194,-41.898529,0.619417329,0.363157187,0.965002345,-0.030742597,-0.018386721,0.024417565
1091,-52.672436,-441.730207,-11.971008,0.803924567,0.23380683,0.879582365,-0.032360628,-0.018386721,0.027947815
1092,50.278234,-520.738861,-28.13187,0.830282773,0.135695821,1.207107136,-0.032360628,-0.018386721,0.027947815
1093,109.534726,-434.547601,47.285483,1.202714169,0.289940061,1.378923445,-0.032360628,-0.018386721,0.027947815
1094,96.366617,-275.931741,175.375272,1.37111366,0.443207951,1.238346483,-0.032360628,-0.018386721,0.027947815
1095,49.679685,-93.373865,261.566531,1.639088481,0.604285729,1.217357594,-0.034272847,-0.017798346,0.03280191
1096,-114.32313,136.469494,209.492646,1.861180632,0.725338124,1.028945362,-0.034272847,-0.017798346,0.03280191
1097,-301.070709,250.194074,273.537539,1.816762181,0.680919776,0.913262283,-0.034272847,-0.017798346,0.03280191
1098,-381.276614,282.515796,232.836112,2.281447197,1.017718756,1.052862997,-0.033684472,-0.016180314,0.048393849
1099,-329.801279,327.407077,161.608612,1.927076045,0.941084811,0.98550316,-0.033684472,-0.016180314,0.048393849
1100,-116.717331,316.034619,-73.023151,1.463855454,0.708742304,0.975740877,-0.033684472,-0.016180314,0.048393849
1101,-1.795651,208.295544,-29.927521,1.204666565,0.741445973,1.132425688,-0.033684472,-0.016180314,0.048393849
1102,146.644852,213.682499,-64.044894,0.748767686,0.6067263,1.217845668,-0.030595503,-0.013385533,0.053983412
1103,290.895501,263.362182,-161.608612,0.384146075,0.752184506,1.489725484,-0.030595503,-0.013385533,0.053983412
1104,345.96214,405.218631,-70.030399,-0.145458104,0.605261978,1.19002314,-0.030595503,-0.013385533,0.053983412
1105,617.703879,98.162268,59.256491,-0.758041794,-0.048323344,0.298726096,-0.030595503,-0.013385533,0.053983412
1106,481.234534,661.996759,-265.157833,3.633524363,0.175233129,2.63142528,-0.02853619,-0.012061689,0.057072381
1107,201.112939,1350.928287,-362.123002,2.226290316,0.961097452,2.207253823,-0.02853619,-0.012061689,0.057072381
1108,-9.576807,1224.634149,-252.588275,1.54878736,0.976717125,1.88900316,-0.02853619,-0.012061689,0.057072381
1109,-277.128842,1112.106671,-250.792624,0.966954842,1.230536697,1.503880836,-0.026476878,-0.010443657,0.059278787
1110,-424.372244,834.379279,-148.440503,0.780007034,1.236882161,1.191975637,-0.026476878,-0.010443657,0.059278787
1111,-428.562097,554.257684,2.394202,0.754136901,1.063601529,0.897154434,-0.026476878,-0.010443657,0.059278787
1112,-366.312704,338.779535,48.482584,0.685312742,0.886904077,0.675550459,-0.026476878,-0.010443657,0.059278787
1113,-282.515796,172.38252,18.555063,0.549128848,0.704349235,0.478352192,-0.026623971,-0.00779597,0.052806662
1114,-198.718738,44.29273,19.752163,0.426123955,0.610631295,0.327036697,-0.026623971,-0.00779597,0.052806662
1115,-98.162268,-19.752163,52.672437,0.32020316,0.469078084,0.198174516,-0.026623971,-0.00779597,0.052806662
1116,40.102878,-43.09563,34.117373,0.387074822,0.311417023,0.136183996,-0.026623971,-0.008237251,0.048393849
1117,165.798465,-32.321723,-23.343466,0.498853007,0.184019164,0.199150765,-0.026623971,-0.008237251,0.048393849
1118,258.573779,-1.1971,-87.986911,0.674086137,0.120076147,0.312881448,-0.026623971,-0.008237251,0.048393849
1119,302.267959,45.489831,-135.272394,0.787328746,0.082491335,0.380729358,-0.026623971,-0.008237251,0.048393849
1120,287.30405,74.220252,-147.243402,0.850295515,0.134231498,0.413433028,-0.027506534,-0.00779597,0.044128129
1121,228.646259,78.410104,-141.856448,0.868355759,0.186947808,0.386098573,-0.027506534,-0.00779597,0.044128129
1122,151.433255,58.657941,-129.88544,0.869820082,0.235271152,0.380241182,-0.027506534,-0.00779597,0.044128129
1123,83.198507,32.321722,-119.710083,0.905452396,0.308000204,0.425147706,-0.027506534,-0.00779597,0.044128129
1124,21.547815,5.985504,-112.527478,0.987455657,0.288963812,0.438814985,-0.029565847,-0.007060501,0.039421129
1125,-20.350714,-28.131869,-101.15502,1.006980224,0.284570744,0.370967074,-0.029565847,-0.007060501,0.039421129
1126,-40.102878,-72.4246,-79.008655,0.98208634,0.270415392,0.335334659,-0.029565847,-0.007060501,0.039421129
1127,-40.701428,-126.294138,-60.453592,0.913262283,0.235271152,0.304583486,-0.028977472,-0.009855282,0.024270471
1128,-23.343466,-178.966574,-49.679684,0.889832722,0.198662589,0.301166667,-0.028977472,-0.009855282,0.024270471
1129,-1.795651,-212.485397,-46.088382,0.887392151,0.139600714,0.341192049,-0.028977472,-0.009855282,0.024270471
1130,15.56231,-217.872352,-40.701429,0.906428644,0.112266361,0.423195311,-0.028977472,-0.009855282,0.024270471
1131,17.956513,-195.127435,-35.913024,0.975740877,0.12983843,0.520330071,-0.022946627,-0.01014947,0.018975096
1132,1.795651,-150.834704,-29.328971,1.045541284,0.143993782,0.641382467,-0.022946627,-0.01014947,0.018975096
1133,-17.357962,-102.950672,-14.36521,1.116317839,0.1625421,0.752672579,-0.022946627,-0.01014947,0.018975096
1134,-19.153613,-65.241995,1.795651,1.179284608,0.144481855,0.86493894,-0.016327408,-0.008531438,0.017062877
1135,-12.569559,-52.672437,20.350715,1.181237105,0.146434353,0.880558614,-0.016327408,-0.008531438,0.017062877
1136,0,-48.482583,37.708676,1.222726809,0.125933537,0.953775739,-0.016327408,-0.008531438,0.017062877
1137,23.343466,-41.299979,47.884033,1.273490724,0.126421611,1.009420795,-0.016327408,-0.008531438,0.017062877
1138,44.292731,-16.160861,44.891281,1.390638226,0.110802039,1.071411315,-0.01014947,-0.008237251,0.018680908
1139,62.847794,16.160861,24.540567,1.491677982,0.104456473,1.115341692,-0.01014947,-0.008237251,0.018680908
1140,65.840545,45.489832,8.978256,1.570264322,0.122028644,1.156343221,-0.01014947,-0.008237251,0.018680908
1141,65.241995,65.840545,-2.992752,1.615170948,0.122028644,1.216869419,-0.01014947,-0.008237251,0.018680908
1142,63.446344,90.381113,-14.36521,1.688876147,0.112754434,1.271538328,-0.012208783,-0.006325032,0.022799534
1143,47.285483,115.52023,-13.766659,1.763557696,0.117147503,1.277395617,-0.012208783,-0.006325032,0.022799534
1144,31.124622,120.308634,-5.985504,1.787475331,0.144970031,1.2437158,-0.012208783,-0.006325032,0.022799534
1145,17.357962,96.366616,2.992752,1.746961774,0.161565851,1.173427319,-0.012355876,-0.011473314,0.018975096
1146,7.182605,44.292731,2.394201,1.66935158,0.143017533,1.040171967,-0.012355876,-0.011473314,0.018975096
1147,19.153613,-27.533319,-13.168109,1.521941081,0.085420082,0.882511009,-0.012355876,-0.011473314,0.018975096
1148,71.82605,-61.052142,-56.263739,1.507785729,-0.02342946,0.789769317,-0.012355876,-0.011473314,0.018975096
1149,77.213003,-102.352121,-69.431848,1.657636901,-0.069312232,0.698003772,-0.009855282,-0.014562283,0.017062877
1150,68.234748,-50.876786,-60.453592,1.903646585,-0.046859021,0.680919776,-0.009855282,-0.014562283,0.017062877
1151,10.773907,17.357962,-37.110126,2.173085831,-0.144970031,0.657490214,-0.009855282,-0.014562283,0.017062877
1152,-10.175357,29.927521,-19.153613,2.303412334,-0.247962181,0.401718247,-0.009855282,-0.014562283,0.017062877
1153,-38.905777,-35.913025,8.379706,2.131596024,-0.539366565,-0.026846279,-0.007060501,-0.015444845,0.016621595
1154,-82.001407,-220.865103,90.381113,1.696686035,-0.767804077,-0.633572681,-0.007060501,-0.015444845,0.016621595
1155,-126.892688,-436.343252,195.725985,1.396495617,-0.876653619,-1.070923242,-0.007060501,-0.015444845,0.016621595
1156,-212.485397,-577.601151,290.296952,1.33499317,-0.799043425,-1.121198981,-0.003971532,-0.018533814,0.016621595
1157,-263.960733,-557.848987,293.289703,1.57807421,-0.678479205,-0.956704485,-0.003971532,-0.018533814,0.016621595
1158,-286.107098,-408.809933,224.456406,1.879240877,-0.578903772,-0.611607441,-0.003971532,-0.018533814,0.016621595
1159,-290.895352,-246.602771,153.228906,2.003221916,-0.487138328,-0.303607238,-0.003971532,-0.018533814,0.016621595
1160,-275.333191,-143.6521,130.48399,1.98028053,-0.348513761,-0.121052396,-0.004118625,-0.018828002,0.015886127
1161,-244.80712,-107.739075,138.265146,1.87387156,-0.311417023,-0.035632314,-0.004118625,-0.018828002,0.015886127
1162,-146.644852,-144.25065,140.659348,1.695709786,-0.342656371,-0.034656167,-0.004118625,-0.018828002,0.015886127
1163,-35.913025,-646.434448,230.44191,1.996876453,-0.379753109,-0.863962691,-0.005442469,-0.017357064,0.015297752
1164,234.033213,-364.517203,-12.569559,-0.79367421,-0.480792762,0.944013456,-0.005442469,-0.017357064,0.015297752
1165,22.146365,405.218631,-47.285483,0.208913048,1.067506422,-0.33094159,-0.005442469,-0.017357064,0.015297752
1166,-309.450565,34.117374,387.262119,-1.840191743,2.274613558,0.389027217,-0.005442469,-0.017357064,0.015297752
1167,-300.472308,-411.802685,135.870944,-1.115829766,1.088007238,-0.205496228,-0.006472126,-0.017504158,0.015150658
1168,311.844766,-820.61262,-512.957706,-0.481769011,-0.421242813,-0.211841692,-0.006472126,-0.017504158,0.015150658
